acc_x, acc_y, angular_z, stamp, 
-0.040107211302920165, -0.004673459275376128, 0.12033628835246131, 277816000000, 
-0.059103371454957754, 0.043141454956133446, 0.12011798292018361, 277821000000, 
-0.032405358258126765, 0.04137849105916338, 0.12015235935704886, 277826000000, 
-0.0711573358686967, 0.05903452429651675, 0.11991643483987058, 277831000000, 
-0.06709064469330055, 0.07068339839926416, 0.12006344235705735, 277836000000, 
-0.08467256686286098, -0.009616630834940975, 0.11981129248090443, 277841000000, 
-0.044810954707636116, 0.11123567480434746, 0.12000154527644327, 277846000000, 
-0.05257372296688076, -0.0022917652013646197, 0.12005999713409096, 277851000000, 
-0.07428248163384532, 0.03351457155389116, 0.12012511551588377, 277856000000, 
-0.04900771068619451, -0.005752066634740677, 0.11964163361285071, 277861000000, 
-0.04229509421105467, 0.0362002011386969, 0.12001790950335194, 277866000000, 
-0.049704653501074336, 0.01919948551091029, 0.11994335047068393, 277871000000, 
-0.07731330251061955, -0.006148496928562091, 0.11996837810251243, 277876000000, 
-0.05752609690698343, 0.06204728344251736, 0.12017263464179524, 277881000000, 
-0.050254818203340754, -0.013904897037673343, 0.12013909327840076, 277887000000, 
-0.053038208985357736, 0.058882233292736647, 0.12017556732413798, 277892000000, 
-0.04822218736656962, 0.0036952116092538977, 0.11981718063527917, 277897000000, 
-0.0623192558707522, 0.00193379590662255, 0.11974853413611046, 277902000000, 
-0.03824558870009409, 0.09295027390977478, 0.11977704268088704, 277908000000, 
-0.07351080091158389, -0.029115178886107464, 0.12014125303017369, 277913000000, 
-0.06075905473109521, 0.05281829993833277, 0.1201105126634968, 277919000000, 
-0.079911431148317, 0.020002909962500197, 0.1197421792908439, 277924000000, 
-0.08001826458500408, 0.11149612491620164, 0.11990324726222203, 277929000000, 
-0.06901641843423804, 0.00900181706781461, 0.11976683758410357, 277934000000, 
-0.051856522795582186, 0.03577714539427781, 0.119853254898478, 277940000000, 
-0.04755391848380668, 0.03778022684701556, 0.11995658465237657, 277945000000, 
-0.06381329740103137, 0.019840025269780678, 0.11995398261794958, 277950000000, 
-0.031194558226578184, 0.08176674512589391, 0.12001570677391432, 277955000000, 
-0.0542654616647869, 0.021608713959174866, 0.12028886342515309, 277960000000, 
-0.06528263996138703, 0.07447603246930919, 0.12006460477977686, 277965000000, 
-0.01712658657071451, 0.004975838610538529, 0.11994946002746507, 277972000000, 
-0.04685837394793961, 0.05783507261433899, 0.11999149270989277, 277977000000, 
-0.07804697785837789, 0.0031976924954545535, 0.12003171119126595, 277983000000, 
-0.061335352459397315, 0.027775619418558953, 0.11991355367983704, 277988000000, 
-0.07002469874210804, 0.08621496071075917, 0.11992685160284094, 277993000000, 
-0.06615676287392235, 0.01529497751227351, 0.11995114213455167, 277998000000, 
-0.06508957676836463, 0.036436788566042655, 0.12039972674930281, 278003000000, 
-0.04095311350034707, 0.05272669233377819, 0.11987411911589552, 278009000000, 
-0.05075140227032017, 0.018754317521479765, 0.11993935000747896, 278016000000, 
-5.058088349720112, 0.11163162881574566, 0.15966434070699811, 278021000000, 
-0.1330687535951411, -0.0037982687678511616, 0.3129972041931592, 278026000000, 
0.5477330071666896, 0.0733544132343169, 0.5048192432842524, 278031000000, 
-0.12905401923685636, 0.14399973760653764, 0.6816266315423976, 278036000000, 
0.175407806193714, 0.19701975855847498, 0.8608806168431624, 278041000000, 
0.029051149218642894, -0.0906939347449414, 1.0049037434373802, 278046000000, 
-0.21191730662207298, 0.26281371361198624, 1.2192110937172171, 278051000000, 
-2.9241739965473745, 0.14596396676678755, 1.3814814877902208, 278057000000, 
-0.2789565108143701, 0.052713327675246585, 1.5354846907255157, 278062000000, 
-0.0613271705304109, 0.3032053676501199, 1.6387133392571052, 278067000000, 
-0.05270737663479701, -0.005605041190253911, 1.6700711075572283, 278072000000, 
-0.0560417283630492, 0.25428770138094614, 1.6937318408007864, 278077000000, 
-0.07285081181977054, 0.18526061038406072, 1.6743652735830266, 278082000000, 
-0.0032934615013488827, 0.0693213352069134, 1.6248888895168716, 278087000000, 
0.20205285155691272, 0.3838261914109278, 1.5614249247815548, 278092000000, 
0.07833032206027311, 0.0858974145052562, 1.3540348227566685, 278097000000, 
0.15543386129250317, 0.12926080545070232, 1.2831196362505586, 278102000000, 
0.13692878308663634, 0.2392580679257658, 0.9863644929885652, 278107000000, 
-0.04563911249359423, 0.005868725652000216, 0.8107108413354658, 278112000000, 
0.032738298411644995, 0.04044077084885237, 0.585416514720396, 278118000000, 
-0.226314911119423, 0.12050003057643231, 0.3062853560738885, 278129000000, 
0.1603703568118029, 0.06446857093050974, 0.1911111101008713, 278134000000, 
-0.227054054789919, 0.03663357292218752, 0.04546176371023051, 278139000000, 
-0.07233233724693723, -0.026898576586128077, -0.058760796130240635, 278144000000, 
-0.16484159007066226, 0.06203567079954045, -0.10890255835196064, 278149000000, 
-2.2504558880599568, 0.022628354366952114, -0.1266546229371678, 278156000000, 
-0.4076667487343032, 0.014300842637838651, -0.12362914855797348, 278161000000, 
-0.027771582297754654, 0.008378922471778067, -0.10519556889347031, 278166000000, 
0.025288739327473896, 0.02625284346936056, -0.04655772278006278, 278172000000, 
-0.28720620825750165, -0.002629191874571654, -0.008071665247438119, 278177000000, 
-0.08499948042555894, -0.012176153660349964, 0.0018444894915510023, 278182000000, 
0.058121510034231785, 0.04565940237318507, 0.07776402458080169, 278187000000, 
1.8149828599715243, -0.04096734090992563, 0.14643039236020314, 278192000000, 
-0.08839224915383286, 0.005350687295957807, 0.17853548230052538, 278197000000, 
0.08310367651099888, 0.03554708534668116, 0.1973534389866189, 278202000000, 
-0.24619192745187274, 0.022714849606309248, 0.2025293786780974, 278207000000, 
-0.056433859605228606, 0.011603817678045365, 0.19478926997096796, 278212000000, 
0.11223288100012611, 0.05142194154957729, 0.1767671470575087, 278217000000, 
-0.24065625522132705, 0.040011833221154494, 0.14263099535207993, 278224000000, 
3.5685146721042376, 0.023445735640927022, 0.09025260125221492, 278230000000, 
-0.06442780212935936, 0.02530097639257725, 0.05641418622014312, 278235000000, 
-0.08901375518263643, -0.07213066155231802, -0.009639132500634874, 278241000000, 
0.06470678526896938, 0.29676792151753606, -0.03317229144807196, 278246000000, 
-0.06083690593502363, -0.11067354482401556, -0.07936074389210183, 278251000000, 
-0.08446325230722745, 0.012631861964486506, -0.09969599473687946, 278256000000, 
0.007895575031157093, 0.20305926029583748, -0.11784595479953537, 278261000000, 
-0.13574143756644627, -0.23824434519243515, -0.12540877942320997, 278266000000, 
-0.02031793023786694, 0.11476211081894172, -0.12430620841866447, 278271000000, 
-0.04955337052766041, 0.03468308462946686, -0.11714068038695002, 278276000000, 
-0.176679047189177, -0.18881197344059136, -0.10179350247923617, 278281000000, 
-0.05180951284643755, 0.051405762539876, -0.09802669303854776, 278286000000, 
0.007140443511909157, 0.1243132527316336, -0.06705519249911651, 278291000000, 
4.2152790826209, -0.17568738573545525, -0.036419169337389264, 278296000000, 
-0.16554087592359745, 0.037717515496611544, -0.005631399379272937, 278301000000, 
-0.07487554885246994, 0.19648350970921813, 0.018419462775960887, 278306000000, 
-0.12142551230030413, -0.1864802315222909, 0.03502313979697087, 278312000000, 
-0.0491355148508692, 0.13564358175979496, 0.05784451352635413, 278317000000, 
-0.10369056823110978, -0.14142062626646285, 0.06771207804329901, 278323000000, 
-0.05842719812126482, 0.012939517426750192, 0.07357492908916566, 278329000000, 
-0.007276318889798341, 0.17422873504613215, 0.07249148588851966, 278334000000, 
-0.08827646980305225, -0.09193191591279827, 0.06155987045295353, 278341000000, 
-0.05253380766329831, 0.03953993619470434, 0.05082708761843346, 278346000000, 
-0.07339840616861824, 0.03837055866598903, 0.03990632197780163, 278351000000, 
-0.03668390775591894, 0.01607232114599761, 0.016345318825740352, 278357000000, 
6.314295078168435, 0.19424705065623263, 0.003495828191096759, 278362000000, 
-0.11426450759425642, 0.004877254825086533, -0.008025682894994461, 278367000000, 
-0.05311369191979511, -0.020073141168836503, -0.02170709122488288, 278372000000, 
-0.05266345842335796, -0.019290031985926503, -0.033206398502333895, 278377000000, 
-0.03368369854900837, 0.048994550364812414, -0.04499486492034405, 278382000000, 
-0.07991266340911347, -0.0012446205286781404, -0.04931552391986716, 278389000000, 
-0.0598613474226492, 0.010770038509625286, -0.05023685327657702, 278394000000, 
4.120499621534441, 0.08511934704211833, -0.047456631166596284, 278399000000, 
-0.10826678343988387, -0.0024571735331042547, -0.04347058875269349, 278404000000, 
-0.06340253462959938, -0.005870966763658442, -0.03288002637358021, 278409000000, 
-0.05634328950173424, 0.024200616251327665, -0.02544691221700962, 278414000000, 
-0.07551686330964313, 0.031289777926741695, -0.015569408088586187, 278419000000, 
-0.06180754484712121, -0.006437472112325192, -0.004916320900817505, 278424000000, 
-0.028985256673459536, 0.01608574147420475, 0.004506890901728283, 278429000000, 
-0.06879455483614333, -0.0032296897785370933, 0.013053605614317879, 278434000000, 
-0.05750534060086955, 0.03463833535713971, 0.02049270614559796, 278441000000, 
-0.08032966150950058, -0.002173624435123818, 0.027156523884089474, 278446000000, 
-0.027377250412444484, 0.02589382683164946, 0.029618914485677043, 278451000000, 
-0.0784349630158896, 0.0305139272524002, 0.028887523880834366, 278458000000, 
-0.0051567596929216405, 0.02557724989862742, 0.026766780424722907, 278463000000, 
-0.032247339883846635, 0.021982795076259675, 0.02296519762847213, 278468000000, 
-0.03902002751218083, 0.01781745076528566, 0.01685791633264505, 278473000000, 
-0.05740411697257249, 0.013677315340525716, 0.012251498763380716, 278478000000, 
-0.01057349568062962, 0.0512153087652559, 0.006477666680020336, 278483000000, 
-0.04769378813322078, 0.009843960198278861, 0.00028050813663904183, 278489000000, 
-0.07366022676743234, 0.0023934168681022175, -0.005904227562721337, 278494000000, 
5.090163720089229, 0.04975172205114698, -0.010544385578281431, 278499000000, 
-0.10817000718095121, -0.009625236199386256, -0.014548412708610837, 278504000000, 
-0.09489079423553722, 0.0030933266255802703, -0.017541171193811773, 278509000000, 
-0.04467584674211392, 0.01544894121347482, -0.018083700641665416, 278514000000, 
-0.01350272654417451, 0.009377967581228663, -0.018224376942257547, 278523000000, 
-0.055826604067165636, 0.01037069035191584, -0.016623506181475164, 278528000000, 
-0.04005873693455386, 0.016479691998617575, -0.013669745859726681, 278533000000, 
-0.04748574490054383, 0.024032568461062772, -0.010643143166139474, 278538000000, 
-0.03375789880827131, 0.023565947587198405, -0.0067183479671681385, 278543000000, 
-0.07014432994747015, 0.016815699374886032, -0.003106933057973071, 278548000000, 
-0.02032588474520029, 0.01715114867441416, 0.0006737426976540486, 278553000000, 
-0.047961975576287154, 0.042200364982708696, 0.004384861894769778, 278558000000, 
-0.07176782343070576, 0.032466848953303706, 0.007005183060435174, 278563000000, 
5.115572979286833, -0.05569690392571817, 0.00916141525016649, 278568000000, 
-0.1255395739267533, 0.010355829572222225, 0.01039878081853517, 278574000000, 
-0.08982328955268253, -0.011878463992939247, 0.01083746466055912, 278579000000, 
-0.03605136245775217, 0.01284676477068471, 0.010124282601909505, 278585000000, 
-0.04677078682883921, 0.01651239629864121, 0.009145174366681065, 278590000000, 
-0.05308693160941836, 0.029854393191761523, 0.00706729904557363, 278595000000, 
-0.044475488634812425, 0.044425770722242075, 0.004968368535516528, 278600000000, 
-0.03723825645255494, 0.07295100443650551, 0.002675976600626772, 278605000000, 
-0.04140494992424647, 0.05539033839038092, 0.0003815941727995429, 278611000000, 
-0.017750046696479824, 0.019319353681655573, -0.0020646448275933155, 278616000000, 
-0.028304074256930566, -0.00015936006214063367, -0.00400815313588601, 278621000000, 
-0.0437129723742947, 0.025994006119194897, -0.005256873132727893, 278626000000, 
-0.024318612914799552, 0.014842132701681577, -0.0062810457386575196, 278632000000, 
-0.06477345505280346, 0.019325503612840977, -0.006286924577661557, 278637000000, 
-0.04626073587135756, 0.009661886717663187, -0.006703175462454796, 278642000000, 
-0.018353806487464805, 0.031032468460063807, -0.006258429984267716, 278647000000, 
-0.04239820667738842, 0.0013133837649899251, -0.0045407364553754015, 278652000000, 
-0.018893254915724803, 0.028882581206617252, -0.004331501217972584, 278657000000, 
-0.05037139406647052, 0.015426406672949613, -0.003959788899438749, 278662000000, 
2.8312518720316686, -0.0102851255374106, -0.001119677212412614, 278668000000, 
-0.13044628564747043, 0.02400727772633917, -8.515560808676038e-05, 278673000000, 
-0.032722996652424896, 0.0003624143548546545, 0.0009262720345054726, 278678000000, 
-0.028599818888667528, 0.010544845768718926, 0.0015193740851640596, 278683000000, 
-0.039671420541117705, -0.005870474942058588, 0.0029690189579742073, 278688000000, 
-0.07249883419678169, 0.019191833390914778, 0.0032571217099550786, 278693000000, 
-0.053688613140256455, 0.0064951633585119545, 0.003496757636828918, 278698000000, 
3.656610915142484, 0.030394179605581245, 0.003319291032082304, 278703000000, 
-0.09509919368982216, 0.03697119180331529, 0.003308396806563656, 278708000000, 
-0.08357122694371619, 0.03266828953075007, 0.0028303314889412835, 278713000000, 
-0.02850087888996824, 0.014934006679329528, 0.001941090851518053, 278718000000, 
-0.02225953986343713, 0.02875706626054493, 0.0014967795081831372, 278724000000, 
-0.04831471076564561, 0.03018391498788809, 0.0005742916117587735, 278732000000, 
-0.061802284995422105, 0.026143772357435896, -0.0005914010747750392, 278737000000, 
-0.03361012233310376, 0.026743610337248175, -0.001304714066519451, 278742000000, 
-0.024217420867154983, 0.003716699867768951, -0.0020693220958053417, 278751000000, 
-0.04047194660111834, 0.024504744034736313, -0.0020794682094242545, 278756000000, 
-0.02979894416897167, 0.003579758422614248, -0.002349744893518345, 278761000000, 
-0.03304702042322881, 0.02456709892126726, -0.002202309412832072, 278767000000, 
6.389175077245584, -0.007690294619706772, -0.001741775530998605, 278772000000, 
-0.10288712836339133, 0.020706177979685818, -0.0015044182748369852, 278777000000, 
-0.0639798198081224, 0.024569312602534914, -0.0006965178291703164, 278783000000, 
-0.02339333458686544, -0.0024208163938742276, -4.146341133260886e-05, 278789000000, 
-0.05788643520386526, 0.04309475284802517, -6.75540205592311e-05, 278794000000, 
-0.02780761499730384, 0.015216714575237485, 0.0004814347306750336, 278799000000, 
5.118468699910792, 0.022404276013432638, 0.0008044610644444119, 278804000000, 
-0.0778717159247703, 0.05025293285819203, 0.0008854844212746625, 278809000000, 
-0.0664341704440195, 0.017107584985277126, 0.0014338616830150332, 278814000000, 
-0.04516965526867893, 0.0035132376030694266, 0.0015926133570023805, 278819000000, 
-0.031079591596823, 0.002327657511804717, 0.0012059208219649994, 278824000000, 
-0.010801645444512165, 0.000982133857532163, 0.0012723244925918426, 278832000000, 
-0.03799337062697668, -0.022652122867175745, 0.001223848018555242, 278837000000, 
-0.013897907680225769, 0.018580533744537386, 0.0007542031830773097, 278842000000, 
-0.021990919584312214, 0.0006036880240958865, 0.0005141662645319549, 278847000000, 
-0.01951248413927931, 0.003839875333098545, 0.0003109658947880585, 278852000000, 
-0.037155661743180225, 0.030673651135943353, -0.00014245557243554955, 278857000000, 
-0.004638706076054069, 0.006847673556576444, -0.000412361649907665, 278862000000, 
-0.04211606311226475, 0.01606475918708849, -0.0002884963919351967, 278868000000, 
-0.03071614014206898, 0.02716170444752957, -0.0010815774598808409, 278874000000, 
-0.01099622237911321, 0.021370508581699105, -0.0009114650026183181, 278881000000, 
-0.04923628616250611, -0.011000299176468602, -0.0009499501384707976, 278886000000, 
0.012235859254801397, 0.030330496489484618, -0.0009437070912746502, 278892000000, 
-0.028884082056419246, 0.026926522341300343, -0.0006727475099284225, 278899000000, 
-0.044683417887902005, 0.021986423741198774, -0.0008069552074248152, 278905000000, 
-0.02127581203492774, -0.024741412247137946, -0.0003112899807723047, 278910000000, 
-0.03812982731249975, 0.020202058643943685, -9.843265127251213e-05, 278915000000, 
-0.021376822786253764, 0.04792468999863938, 0.00011164022688762136, 278920000000, 
0.010222522388307526, 0.012264313260978713, 0.00022208267014103806, 278926000000, 
-0.005385264003962678, 0.025647265076019915, 0.00038647773736783723, 278932000000, 
-0.017141601683057762, 0.025022122266037162, 0.0002787060203139161, 278938000000, 
-0.031910961660402, 0.003552773580691398, 0.0006513443628707907, 278945000000, 
-0.029886236894604838, -0.001900128216490854, 2.537924764550682e-06, 278950000000, 
-0.04176362895464869, 0.017011967916456847, 0.0001745253497828781, 278955000000, 
-0.037766107825195405, 0.026153542213212887, 0.00045716987072953725, 278960000000, 
-0.0388900210527546, 0.0012840001260484325, 5.303892559826919e-05, 278965000000, 
-0.0036959064380059775, 0.01674516923150999, 6.068741514022265e-05, 278970000000, 
-0.022902389519311565, -0.008357168509718302, 0.00047482942164762314, 278975000000, 
-0.029093422432173166, 0.004623733236066316, -5.053979632018335e-06, 278980000000, 
-0.029378017670973387, -0.0052833602965496225, 2.527879429803045e-05, 278987000000, 
-0.01504363352079432, -0.011631925774033465, -0.0004016368813963882, 278992000000, 
-0.01470140225138583, 0.005652514638352936, -0.000182905391538733, 278999000000, 
0.012092237040692618, 0.013128672180055902, -0.00020530290208760284, 279005000000, 
-0.021461830473459904, 0.01138809868000233, -0.00015518349501453827, 279010000000, 
-0.02406949442094356, -0.01604098560253194, -0.00016727056588996191, 279015000000, 
-0.02678889565063498, 0.025664997216468248, -0.00013140179808847848, 279020000000, 
-0.052252245222638674, 0.02339922066524048, -0.00024945018132106777, 279025000000, 
0.002946922184712389, -0.008346002540497393, -0.0002658395054232084, 279030000000, 
0.01737680104554476, -0.0036994339512502958, -0.00012715710109663972, 279035000000, 
0.007499612342098297, 0.012893516628281844, -6.955671344594758e-05, 279047000000, 
-0.02947670995568733, 0.028370336866353797, 0.0003763158230016937, 279052000000, 
-0.004612469508627924, 0.03240976212301876, 0.00026190256681105366, 279057000000, 
-0.012780729022118475, -0.023418870440322564, 6.983889511365834e-06, 279063000000, 
0.0014526257155663275, 0.017553261878589514, -7.803776328094484e-05, 279068000000, 
-0.014806696977270464, 0.0001642662199335173, 1.6262673757575936e-05, 279074000000, 
0.0023842006716603553, 0.025669190973806513, 0.00038193820849584723, 279080000000, 
-0.028890618379581998, 0.0066398973216032515, 6.268792456745538e-05, 279086000000, 
-0.0011322532278875107, -0.01717577327598351, 0.00017727183310500594, 279092000000, 
-0.004571120378994653, 0.0376380115031424, 0.00045670849631181685, 279099000000, 
-0.012453500256508862, 0.04163435382478017, -0.0003209634886414307, 279106000000, 
0.010580495202536594, 0.012914503160504853, 0.00019568240511796183, 279111000000, 
-0.02938482861948394, -0.007346120265278044, 9.916985280560622e-05, 279116000000, 
-0.019741715488165706, 0.006714194903792846, -3.7926113403045176e-05, 279121000000, 
-0.019946407734899668, 0.028254274428534502, 0.00012459720319223056, 279126000000, 
-0.010732661460409552, 0.0249552729377292, -0.00029760049250405964, 279131000000, 
-0.004024040622965387, 0.005732389182091333, -0.00041898475495411616, 279136000000, 
-0.004161665177214377, -0.003733620267820134, -0.00045659586559917856, 279141000000, 
-0.051606337585494565, -0.020768123925260267, -0.00016674834742962748, 279149000000, 
-0.02722135260004002, 0.00712614736948506, 0.00034302029120164394, 279155000000, 
-0.01573321219012678, 0.059630570009395326, -2.2686774916739995e-05, 279160000000, 
-0.03390860589459526, 0.014024562769827985, -6.599854021558139e-05, 279165000000, 
-0.01991836882110625, 0.0010888847249149146, -0.00010399617851760609, 279170000000, 
-0.065296712505513, 0.010261296302557541, -0.00010813529486202035, 279177000000, 
-0.04279559130342085, 0.018636118685968046, 0.00016831408171536782, 279188000000, 
-0.028460866027748694, -0.0026737722088488727, -0.00025438616557861663, 279193000000, 
-6.145184137441168e-05, -0.0004991780425282681, 0.00017708185952827705, 279199000000, 
0.019823973522060806, 0.013826989982751777, 0.0006093939997170162, 279204000000, 
-0.022968172966268328, -0.04729945901601969, -0.00020377394157674515, 279211000000, 
-0.009824084485777719, -0.02966098842864855, 7.033335796392573e-05, 279216000000, 
-0.034249790656454684, -0.0394342017679346, 0.0005533805979700489, 279223000000, 
-0.030931031224192364, 0.03952939863858079, 0.00024658669898168663, 279231000000, 
-0.006917556117154586, -0.003792376881681444, 0.000310696638540997, 279236000000, 
-0.0468456193726013, -0.002192783078646843, 0.00036034107813209945, 279242000000, 
-0.025297552544620197, 0.03147615543862585, 0.00018660834497008673, 279247000000, 
-0.02431792559676353, 0.0026360806295200262, 0.0001886785558889873, 279254000000, 
-0.03777715414566952, 0.03047454908427555, 0.0006115701002501919, 279260000000, 
-0.01756678668928027, 0.011831347732275156, 0.00031190067618666405, 279266000000, 
-0.010581026907583693, 0.00047101637763827687, 4.449628562316091e-05, 279271000000, 
-0.006862079209943219, 0.022702978619142777, -8.510485685513336e-05, 279277000000, 
-0.02704483258732329, -0.0034432388875631687, -0.00016306305112947177, 279282000000, 
-0.013574634359474702, 0.012082008421658377, -6.0767877574437364e-05, 279287000000, 
-0.02026652356550544, -0.014710291923921023, 5.921572126171635e-05, 279292000000, 
-0.013166560082724044, -0.0044931578749418544, 0.00010075123618675475, 279298000000, 
-0.008477021339572562, -0.0026391509704524582, 1.2619019005449431e-05, 279303000000, 
-0.01964492122686037, -0.018500817838427285, 5.7769122585633046e-05, 279308000000, 
-0.006588103222054699, 0.013627067199235475, 0.00013595988970609344, 279314000000, 
0.020679400583421447, 0.008161617388088904, 0.0003032858633927468, 279320000000, 
-0.005698906388350012, -0.0005665017447960873, 0.0002160119131456402, 279325000000, 
-0.026806392533390535, -0.017051743930545624, 0.00023803379873839489, 279330000000, 
-0.029600631493273626, 0.0025899692308692084, 0.00026374508238618264, 279336000000, 
-0.02196319899818374, -0.008342234271371728, 0.0001491065982921626, 279348000000, 
-0.05349879668125905, 0.0013112757558907447, 0.00047408834309357726, 279354000000, 
-0.00010403044799600983, -0.021207152944025975, 0.000405822236100436, 279360000000, 
-0.02608306914700604, -0.027697670507324572, -2.978062447958499e-05, 279370000000, 
-0.02609388160034619, -0.032596312029145605, -0.00011924480838387195, 279375000000, 
-0.04765498322934249, 0.008019805550353622, -0.00011672088800298978, 279381000000, 
-0.031221863785678344, 0.027982275333585428, -0.0001893559326628958, 279386000000, 
-0.03448484610020221, 0.011988543931308946, 7.61343043685017e-05, 279391000000, 
-0.024931281617047902, -0.005623110684394983, 0.00026008094414074436, 279396000000, 
-0.013153726163316396, -0.026387572727012223, -4.23471999634047e-05, 279401000000, 
-0.04283964714636489, -0.004426752429090738, 0.00017032057275868852, 279406000000, 
-0.02091574489839241, -0.03247906818690824, 0.0003770207664511027, 279411000000, 
-0.039086080181343505, 0.011740702004191965, 0.0002455023576846047, 279416000000, 
-0.02864981683007875, 0.02559983120586234, 0.00041901429539635646, 279421000000, 
-0.056672472184541176, -0.011846410873699535, 0.00010658083018761532, 279426000000, 
-0.022125824164434035, 0.019618169354897224, 0.00023639040281705313, 279431000000, 
-0.04877885209515575, -0.004559058571859998, 0.0003592616659787921, 279437000000, 
-0.048238720095565145, -0.011320469903641396, 0.00040061430608799467, 279442000000, 
-0.034894852490810896, -0.013164961549927228, 0.00025700319880154576, 279447000000, 
-0.0509938235153206, 0.006554606679752535, 0.0002952640706082214, 279452000000, 
-0.01627733882734906, 0.01485882507027041, 0.0001886274204956953, 279457000000, 
-0.03934921245630724, -0.02282365078286918, 0.00015388655213354691, 279462000000, 
-0.046641747464778435, -0.0011072354773590514, 0.00025840845046069393, 279467000000, 
-0.0216138239869317, 0.004068382849431416, 0.00022487130054128952, 279472000000, 
-0.020671488364677654, 0.012731236589462647, -1.074350188692334e-05, 279477000000, 
-0.04391531235464066, -0.0011425316252382826, -9.137295219425876e-05, 279484000000, 
-0.0030393421736990694, -0.014110443656620467, 0.00020070849617934326, 279489000000, 
-0.04764069830564605, 0.017804962959580263, -0.00014993526314723406, 279494000000, 
-0.017278561096618746, 0.04377539061057444, 8.681251324790508e-05, 279499000000, 
-0.038169605716470725, -0.017095541590977523, 5.5970798469290924e-05, 279504000000, 
-0.039375529933993715, 0.011192740930886314, 0.0005785189068319882, 279509000000, 
-0.03688821301600122, 0.005988166969807689, 6.801738719892938e-05, 279514000000, 
-0.0427646659480154, -5.535229496502836e-05, 0.00012073768279652492, 279519000000, 
-0.04691832569780844, -0.002714655357952286, 2.3426641058416612e-05, 279524000000, 
-0.045668180814515756, -0.011295754939472795, 0.00045986737965305745, 279529000000, 
-0.0351752252119214, 0.01073055079405711, 0.00010974990325097787, 279534000000, 
-0.028304277028300868, 0.012712761579853925, 0.00034822514735342126, 279540000000, 
-0.04374301378072992, 0.025068043172127092, 0.0004580522765155677, 279545000000, 
-0.05234376688390693, 0.01648174107467059, 0.00025905732753622306, 279550000000, 
-0.045622914903400875, 0.007342649059765749, -0.00013865228072216973, 279555000000, 
-0.0641074573922657, -0.00160556910787604, -0.00020061535658166073, 279560000000, 
0.02527392127119604, 0.03106229124578048, 0.0003368493939775131, 279565000000, 
-0.1425964105703859, -0.07053621359437014, -1.2783576478932545e-05, 279570000000, 
-0.024319944328026668, 0.00025594891017428206, -0.00017146412314958617, 279575000000, 
0.02198338596698647, 0.06264693084688998, -0.00029382298504742623, 279580000000, 
-0.22025596398003147, -0.08137676016700873, -0.0006165855157732397, 279585000000, 
0.05502891376213567, 0.0672931099531103, -0.0004626147370777377, 279590000000, 
-0.15526491248991786, -0.06928810139369357, -0.00045439077793419215, 279595000000, 
0.037762827643719486, 0.061108239788310016, -0.00022503746048411615, 279600000000, 
-0.1255405469753064, -0.06171412813942567, -0.0003535142436544309, 279607000000, 
0.02779385956676074, 0.08709111684642183, -0.0005090314601210396, 279612000000, 
-0.03339256391883737, 0.0062859348538136075, -0.0007544106696020776, 279617000000, 
-0.05805213082004846, 0.013734134447284245, -0.00045176272218663474, 279622000000, 
-0.06435910668218833, 0.018277606771190766, -0.0005551238939493577, 279627000000, 
-0.11659421014816534, -0.004991852622219039, -0.0003764872616882972, 279632000000, 
-0.04198386229718391, 0.0071399925204777455, -0.00031863666690583336, 279637000000, 
-0.09640992476830945, 0.019083722964851942, -0.00038093393596801617, 279642000000, 
-0.0957308519898981, -0.006656679555669873, -4.9300075223769764e-06, 279647000000, 
-0.06145155295215058, -0.01964100300051641, -0.000179622384755013, 279652000000, 
-0.03313092011838852, 0.0008549477222857989, 0.00016672065097921075, 279657000000, 
-0.053330836920339866, -0.0010819500631516496, -0.00015280752924155076, 279662000000, 
-0.08681704156228565, -0.006087009557952937, -0.00020726411170192825, 279667000000, 
-0.057619148069829366, 0.006141191473689293, 6.113599335990477e-05, 279672000000, 
-0.043634002927046195, -0.006665259530793378, 0.0003541880948814692, 279677000000, 
-0.04993238307191093, 0.00934840225246969, 0.00033991405863495017, 279682000000, 
-0.06590536815788946, -0.04432468076709466, -0.00014111203362096483, 279687000000, 
-0.07979784036608553, -0.009722812652603935, 0.00030945091167878977, 279692000000, 
-0.07750786954196301, -0.024417559458489644, 0.00028100245911321216, 279697000000, 
-0.07101462021208614, 0.008842087150203671, 2.113691073035053e-05, 279702000000, 
-0.0649197445683777, -0.00649574332497896, 0.00018914307103861126, 279707000000, 
-0.09130404659818003, 0.007428780728935082, 0.0001230835525406014, 279712000000, 
-0.05793886355501441, -0.015874517079839664, 0.0003197360758937066, 279717000000, 
-0.0887344636526341, 0.0005316027428243575, -0.00026162153357651654, 279722000000, 
-0.055038635747058556, -0.030409002606872175, 5.462969348085933e-05, 279727000000, 
-0.07999708585983382, 0.0002959118879599823, 0.0002331057592892956, 279732000000, 
-0.06822049986086248, -0.01790920379627167, -0.00027509021379112366, 279737000000, 
-0.0616639648050001, 0.01106411078174085, -0.0004484671373858783, 279742000000, 
-0.021491414473823925, -0.019349943167054264, -0.0006709296036500323, 279747000000, 
-0.05854959564331404, 0.021073170908424435, -0.00028708231289530214, 279752000000, 
-0.0805337063607007, -0.006096151380140308, -0.00024507068000051164, 279757000000, 
-0.08433435324761651, -0.013283847269597948, 1.951268764751636e-05, 279762000000, 
-0.06824365989191235, 0.011209504047286042, -0.00048442920966530127, 279767000000, 
-0.07852698718447056, 0.01791147270045207, -0.0001503994909563969, 279772000000, 
-0.05956919279068329, -0.009005673778488616, 9.653576531767247e-05, 279777000000, 
-0.08316809620577958, 0.0023909181613851675, -5.887902793605228e-05, 279782000000, 
-0.06780940383951625, -0.02740880775883196, 0.00010845946341694719, 279787000000, 
-0.05794740328248157, -0.016409519532833407, 0.000360249066539035, 279792000000, 
-0.056896932744086866, 0.00795484933154591, 0.00017014595424812547, 279797000000, 
-0.0893017819045261, 0.00282815531477876, 0.00021911607447499528, 279802000000, 
-0.07380848498168914, -0.0066133472851784055, 0.0003540722865827511, 279808000000, 
-0.04300908375703673, 0.00820503108891802, -0.00014614209888152033, 279813000000, 
-0.08166555708321863, 0.0032534497282877143, 0.00016191595955688767, 279818000000, 
-0.050501648592525344, 0.010442884677902546, 9.465435664129076e-05, 279824000000, 
-0.07829970841612291, -0.003252967999222989, 0.0001476575509317169, 279829000000, 
-0.19055278289862876, -0.08236530724660547, -7.48599478998238e-05, 279834000000, 
0.10196442255675109, 0.13506515472414327, 0.00025601307566283985, 279839000000, 
-0.01780758694340503, -0.005802382672012876, 0.0003185620433002039, 279844000000, 
-0.06462453806482552, 0.02612589035295166, -0.0001459241509062086, 279849000000, 
-0.1771614417097411, -0.0880367369961732, 0.0007155768269810655, 279854000000, 
0.07970015447378553, 0.10050377768151526, 0.0005652025193981844, 279859000000, 
-0.08880841614827902, 0.01103459577260163, 0.00021839938982891655, 279864000000, 
-0.1366041911601867, -0.09018259435539945, 0.0005924700890521105, 279869000000, 
0.08157659953541845, 0.09782785069438686, 0.00025343283999271216, 279874000000, 
-0.21640588136068056, -0.1274701758113357, 0.00017259983992329032, 279879000000, 
-0.05896502954512181, 0.01922692088902016, 0.00030801172015424046, 279884000000, 
0.04497103950030518, 0.1108247213197445, 0.0005752166677207233, 279889000000, 
-0.19353328923936788, -0.095457218216442, 0.0007932477507990435, 279894000000, 
-0.013960285486211886, 0.020790080129627252, 0.0008312562649618944, 279899000000, 
-0.07019332521631574, -0.012788018594868764, 0.00047065971570342015, 279904000000, 
-0.05715806199443528, 0.006682712133692684, 0.0006431924711448332, 279909000000, 
-0.04020963347377204, -0.0052295149992409445, 0.0007470832998608264, 279914000000, 
-0.0724378413626218, 0.008109198265764388, 0.0007471141412925993, 279919000000, 
-0.06806398897484459, -0.02008933422954316, 0.0006882417210898062, 279925000000, 
-0.06554636912010983, -0.02284644801825072, 0.0008075025568809388, 279930000000, 
-0.09147806725443591, -0.016533340855113647, 0.00029645559998329465, 279935000000, 
-0.03162659826510793, 0.015478875476819467, 0.00038913816132330506, 279940000000, 
-0.03616306818729014, 0.01559376828674406, 0.00042470769904871385, 279945000000, 
-0.03901510754206418, 0.007334605038135218, 0.0002458869637609841, 279950000000, 
-0.05707643194357467, 0.047707720175346295, 0.00046975982348701955, 279955000000, 
-0.09070063964243805, 0.007014536039937065, 9.118797252691362e-05, 279960000000, 
-0.05790470523208107, -0.0007266684754799564, -6.88937795846499e-05, 279965000000, 
-0.04870924646181284, 0.027528475674452924, -0.0003478582976669894, 279970000000, 
-0.0618605926099757, 0.010745212641809452, -0.0005112288850173967, 279975000000, 
-0.03298816329983463, 0.020586094072794762, -0.0003270745746401462, 279980000000, 
-0.04392792112895031, -0.027673159774472114, -0.00016357443581994875, 279985000000, 
-0.06545356279688248, 0.02815464322178788, -0.0004118483837569169, 279990000000, 
-0.024778209835429412, 0.012025143502468541, -0.0006199515445778243, 279995000000, 
-0.02883469591350516, -0.004680802602216687, -0.00038005706237375877, 280001000000, 
-0.0015868246656288582, 0.030011325887305762, -0.0001737956761249363, 280006000000, 
-0.05257393291362389, 0.026840956144700445, -0.00016106349121895367, 280011000000, 
-0.024456522017741365, 0.010399215142574619, 0.00034635604526131583, 280016000000, 
-0.041062917695406556, 0.04152360138484393, -0.00014063808806543085, 280021000000, 
-0.03617214877234351, -0.007071124327596389, 0.00012219907596269325, 280026000000, 
-0.020402561872967302, -0.001249984876155393, 0.00012187912617389206, 280031000000, 
-0.039829591417992645, -0.0047298072014699336, -5.530369561979539e-05, 280036000000, 
-0.028828463159526994, -0.018748679963539565, 7.983179201906088e-05, 280041000000, 
-0.00881529362044093, -0.007760657441564498, 0.00043878687985833326, 280046000000, 
-0.04409493803501962, -0.002717156779344413, 4.1476945085705584e-05, 280051000000, 
-0.04951856112828854, 0.02025112601530528, 0.00025757714155312853, 280057000000, 
-0.04040724005199143, 0.025862478099085144, 0.00022524073656867802, 280062000000, 
-0.042740471947074886, 0.02276328168650907, 0.0003258867479159558, 280067000000, 
-0.03646081702583198, -0.004897787970612227, -1.6563831710595466e-05, 280072000000, 
-0.02737474106873447, 0.01282839116315795, 0.0003028503302446508, 280077000000, 
-0.04511016425367767, 0.011279565189053625, 1.1216722519987815e-06, 280082000000, 
-0.05381964880559431, 0.01327710323158696, -0.0004034005146700703, 280087000000, 
-0.07942520354411797, 0.000305590881748731, -7.622045062923453e-05, 280092000000, 
-0.05400026425226598, 0.036148494258113735, -0.00021655914586098172, 280097000000, 
-0.040601648058495636, 0.026582289499626703, -7.609815954072283e-05, 280102000000, 
-0.001484512857373832, 0.01055902831829707, 9.681737127399518e-05, 280108000000, 
-0.01773877205279186, 0.01838836757130776, -0.00012932897375326233, 280113000000, 
-0.03707252771959358, 0.011092570140354321, -0.0001244478962146286, 280118000000, 
-0.06774346246381442, 0.04026231068356913, 2.8776269059472385e-05, 280123000000, 
-0.03062531687267698, 0.01951905692328873, -0.0002662872853081536, 280128000000, 
-0.040117988543086604, -0.004134297072970073, -4.5756894263385355e-05, 280133000000, 
-0.023495562716646254, 0.0037511854413677667, 1.8358922148013165e-05, 280138000000, 
-0.03934365703206526, 0.010241258773265068, 0.00032138449589975515, 280143000000, 
-0.060521428618789355, -0.00021346710168589512, 0.0001383925837215476, 280148000000, 
-0.03312572545414459, -0.008284321842967624, 0.00017461479625393742, 280153000000, 
-0.003431085671911624, 0.009267936412519471, 8.963891386044355e-05, 280158000000, 
-0.005992391943438192, 0.028425242073626532, 0.0002557674235160086, 280163000000, 
-0.04663314187028733, -0.007214999898552615, 0.00013068685668686937, 280168000000, 
-0.04616598185016229, -0.015482094698524934, 0.0003318358323502307, 280174000000, 
-0.0587410272821068, -0.0105388475348564, 0.00016990942308069568, 280179000000, 
-0.0445947740390753, -0.000271626211403502, -4.745816183963167e-05, 280184000000, 
-0.05523690545521749, 0.010034042696056763, 0.000213574464478173, 280189000000, 
-0.03696683961223903, 0.019543529062810247, -3.6685234675627074e-05, 280195000000, 
-0.03901987799328843, -0.0006597255507057986, 0.00013358526890281603, 280200000000, 
-0.05358794196988484, -0.015125108719036925, -0.0002289222740063652, 280205000000, 
-0.05312576451532294, 0.023646954996457505, 0.0002758322384682849, 280211000000, 
-0.06731755267069066, -0.02347729844060356, 5.9485258946634253e-05, 280217000000, 
-0.048547409795235356, 0.014230302247255567, 0.00013695773848540775, 280222000000, 
-0.034017160839020524, -0.0019844648362424347, -0.00024082396472521777, 280228000000, 
0.00605403181709336, -0.0034170554258704626, 0.00011430795102246067, 280235000000, 
-0.026708341380192673, -0.0014145018416492237, -0.00035142161061535514, 280240000000, 
-0.0441242423098443, 0.017684372137025898, 7.420321269032353e-06, 280245000000, 
-0.04375361055686926, 0.05094080940453772, 0.0003265806562226032, 280250000000, 
-0.04034291015783575, -0.003819387309279723, 9.78407372320603e-05, 280255000000, 
-0.026573843588635633, 0.0044078682939176165, 0.00023366154295507665, 280260000000, 
-0.030819910694968686, 0.02207575560417065, -0.00014726991930132677, 280265000000, 
-0.03671098103011523, 0.02041272206567862, 9.278949271172561e-05, 280270000000, 
-0.047457341025468745, 0.012191918144668353, -0.00033296725645977273, 280275000000, 
-0.014309375275980422, 0.002329114315800831, -0.00012093353295353934, 280280000000, 
-0.028412591227203497, 0.028948217141374, -0.00013049934584361296, 280285000000, 
-0.0617868056582307, 0.007729422435767285, 0.0002693238427131581, 280290000000, 
-0.041656434444190885, 0.027894459522311302, -6.341949850859104e-05, 280295000000, 
-0.06492415672579971, -0.025532727457329495, 0.0006417221075463409, 280300000000, 
-0.046145619655361694, -0.0068509348742877355, 0.00026456583898328077, 280305000000, 
-0.04350383164634345, 0.015628978661422516, 0.0002842558224328437, 280310000000, 
-0.021852979341210013, 0.022144254514317344, -0.00011912842959914073, 280315000000, 
-0.011711953943988426, 0.015508254708620833, 0.0001492595232590836, 280320000000, 
-0.011324264561311765, -0.009343128624749304, -0.00023600904654405696, 280327000000, 
-0.09389111622671459, 0.009109727123437359, 0.00014492726598861925, 280333000000, 
-0.024176558344885676, 0.021952058059494572, 0.00010097100317586003, 280338000000, 
-0.054168091467535484, 0.005128225114098991, 7.605722290639414e-05, 280343000000, 
-0.0624801846568097, 0.01896688603916008, -5.931020915118524e-05, 280349000000, 
-0.05135196833143268, 0.014067960786872894, 0.00019686956340523692, 280354000000, 
-0.008712439139374459, -0.016375520510097722, 0.0001831290720651225, 280360000000, 
-0.014762518054559855, 0.019049755982082143, 8.68960685174755e-05, 280365000000, 
-0.019848508080674603, 0.03298246134367589, -8.227482064237493e-05, 280370000000, 
-0.0546243505711688, 0.006026822944446067, 0.0003749550577851571, 280375000000, 
-0.07013859067980668, 0.018029033876722257, 0.00018050666929659252, 280380000000, 
-0.04321478615131081, -0.010554135940479607, -3.531530199290666e-05, 280385000000, 
-0.04331358874079205, 0.008537337629227398, -0.00014765358589843868, 280390000000, 
-0.06507753544588203, 0.034796173368616554, 0.00014901149324368233, 280395000000, 
-0.04045598252494776, 0.016016659016540025, 0.0004126186322579814, 280402000000, 
-0.027770834018445018, 0.023833482423843883, -4.535208591029602e-05, 280407000000, 
-0.05679494252811445, -0.010346302469091628, -0.000445259894758193, 280412000000, 
-0.04676899959576414, -0.02814569058784337, -0.00017168354603864898, 280419000000, 
-0.055507985644662014, 0.02557004214050673, 3.464458408589927e-05, 280424000000, 
-0.017069013235136557, 0.01562045679367214, -0.0004267756973356375, 280430000000, 
-0.06050171845992241, 0.012839978670005896, 5.948076250982772e-05, 280435000000, 
-0.04206208028268942, 0.04007506577017263, 6.255064718052182e-05, 280440000000, 
-0.06363455689577246, -0.016438368682887256, -0.00017255414558122524, 280445000000, 
-0.04446412384406886, 0.0033830817484817827, -1.6411992368046508e-05, 280450000000, 
-0.04196934474259264, 0.002489919713518495, -0.00019044414502055747, 280455000000, 
-0.06601944380591122, -0.016454175225307094, 0.0001803482320244993, 280460000000, 
-0.04415709710837178, 0.03300298586196293, -1.2931681712195231e-05, 280465000000, 
-0.06970417822972524, -0.013769595493582521, -0.00019034331494588517, 280470000000, 
-0.06468397549516382, 0.006672082859764505, -0.00013341390195934706, 280475000000, 
-0.04316228826232551, 0.01653238787284607, -8.246683814685253e-05, 280480000000, 
-0.046528322041689545, 0.005929197054272943, 0.00011094329558504839, 280486000000, 
-0.07989874048445397, 0.031616799572738635, -0.00015478439799488405, 280491000000, 
-0.06454024201016889, -0.005176373370985453, -1.4549887180251202e-05, 280496000000, 
-0.07791962489590984, 0.015831442811286647, -7.094311222532617e-05, 280502000000, 
-0.06999321551495144, -0.0009799817852472982, 0.00027615331489813313, 280507000000, 
-0.06606936351686186, -0.009327080322700694, -0.0001719135484231924, 280512000000, 
-0.054459803491696046, -0.0011238079566413001, -0.00011998180209926194, 280517000000, 
-0.08384341519731991, 0.01650065548587136, -0.00015922218882137462, 280522000000, 
-0.08835580193512507, 0.018254904678887896, -0.00018040835291256, 280527000000, 
-0.05539319280893703, 0.015833897777246767, 0.00019855496383765412, 280534000000, 
-0.07582285864621079, 0.030794604438050925, -0.00020280694369892503, 280539000000, 
-0.055672763651834115, 0.02832350262510686, -0.0002680914665301786, 280544000000, 
-0.021592249913329593, 0.01803269284679948, -3.311806627441101e-05, 280549000000, 
-0.039290300057784174, 0.004333988868303093, 0.00011495587587348539, 280554000000, 
-0.054687079833476857, -0.012168363348394117, 2.7980002315990695e-05, 280559000000, 
-0.06433354674690792, -0.0056144376590895155, -0.00018574620195372496, 280564000000, 
-0.03150455646769179, 0.036132471022383816, -0.00013524067923684102, 280569000000, 
-0.08163959505616508, 0.039655447455641736, -0.0002151979228408304, 280577000000, 
-0.08786685278504734, 0.010060247220544015, 1.9489577788027034e-05, 280582000000, 
-0.08566998010356666, -0.0027596657385293424, -0.00021849349495045047, 280587000000, 
-0.048212326224314185, 0.015388261741440565, 4.2483938870657074e-05, 280592000000, 
-0.06720621957818122, -0.02986662495342459, 8.752855667984813e-06, 280597000000, 
-0.07963575987157442, -0.010953310355923548, 0.00022478557026573667, 280602000000, 
-0.051020629314318916, 0.023802900345265547, 0.00028084471067874224, 280607000000, 
-0.07120052112151569, 0.01592024089825575, -0.0002909661866320029, 280612000000, 
-0.05225092612834695, 0.03657492156444878, -5.6233191620817495e-05, 280617000000, 
-0.08202686385737919, -0.02324095458897657, 9.886157023635411e-05, 280622000000, 
-0.07399303340637764, 0.020084580038692745, 0.00034494284645052457, 280627000000, 
-0.08284395176541862, -0.0037184450694544343, -0.0002010692688252806, 280632000000, 
-0.06031710024451788, 0.0137535813941843, 6.857952434782062e-05, 280638000000, 
-0.05742813870646219, 0.02061557890806888, -0.00019792980032324464, 280643000000, 
-0.08435492296061378, -0.00930363766941702, 0.0005501578302978787, 280648000000, 
-0.055278888373596236, 0.022636206402502024, 4.8281485355571184e-05, 280653000000, 
-0.058066081091409996, -0.025378862037126804, -0.0001498294467932818, 280658000000, 
-0.0922965977439708, 0.00853223677405733, -3.643694000815718e-05, 280663000000, 
-0.04117535081715489, 0.011881883605872293, 3.997445804768244e-05, 280668000000, 
-0.07805995148910938, -0.030703293333326692, -0.000281604406580104, 280675000000, 
-0.03774635131295756, -0.008588810855040083, 8.280097388002534e-05, 280680000000, 
-0.10804109752762195, -0.0078115597803830655, 9.724148026800785e-06, 280690000000, 
-0.06702044753893553, 0.024648776691847233, 2.9813485650284552e-05, 280695000000, 
-0.05021218274567026, 0.00612471441832708, -8.749608655882023e-05, 280702000000, 
-0.059154544365529464, 0.02967844066383983, 7.736134551807642e-06, 280707000000, 
-0.1091068469836912, -0.018217353370665997, -0.00015582118438064798, 280712000000, 
-0.045834841955585306, 0.03837614203517297, -0.00010393454561513488, 280717000000, 
-0.06654894240038943, -0.03239558967462874, 8.208785929504952e-05, 280722000000, 
-0.09833203772209992, -0.0054697147519990035, -0.0003517522535833471, 280727000000, 
-0.0258273707082647, -0.010567921594165215, -0.0001507757461054256, 280732000000, 
-0.05676402812819183, 0.006234259682914669, 0.0002795070309417291, 280737000000, 
-0.07121787779093455, 0.02376819971630357, -0.0001906803248927163, 280743000000, 
-0.09272687357892526, -0.021656625820777403, 0.00010190885408980313, 280748000000, 
-0.04395032703179705, 0.001307673979581194, 9.308362713551378e-05, 280753000000, 
-0.06507134213168908, 0.005941822582986138, -0.0002964109576120022, 280758000000, 
-0.06265361442006365, 0.028760724140028584, 0.0001269594219440209, 280763000000, 
-0.07400021949709645, 0.02133640806113793, 0.0002028036165678227, 280768000000, 
-0.057161452787817396, -0.004046718167369255, 3.9343194607369044e-05, 280773000000, 
-0.055111258525622694, 0.014237422533464519, 0.00022826246886007313, 280778000000, 
-0.03808809937774464, 0.006644339420708561, -1.8768371184640567e-05, 280783000000, 
-0.05737945804535707, 0.00593728821001208, -0.0003321253209686635, 280788000000, 
-0.046337619262114035, 0.027360432196031906, 6.70732313819559e-05, 280793000000, 
-0.07340749139186938, 0.02305579209628612, -3.47481985057455e-05, 280798000000, 
-0.057056952045271475, -0.031584804469918626, 7.953177225460988e-05, 280803000000, 
-0.05406869257788262, 0.03223286008998602, 4.594633399027771e-05, 280808000000, 
-0.07819116978232754, 0.00933584293842946, -0.00024926592031327717, 280813000000, 
-0.03644470760485438, 0.0018686303331682972, -2.0284786622723354e-05, 280819000000, 
-0.04559888369830371, -0.010858907775700997, -7.439332823763277e-05, 280824000000, 
-0.03761948318703453, 0.048113949358778885, -0.00020287071096414833, 280829000000, 
-0.05222524912140609, -0.025491784439279984, -0.0003178920182257837, 280834000000, 
-0.038234941909112974, 0.0011812698753372623, 7.262327358179293e-05, 280839000000, 
-0.04431576600470684, -0.010639459364924964, 0.00016019487282864059, 280844000000, 
-0.05837289667245196, -0.027796999469116353, 0.0002254514167639907, 280849000000, 
-0.05184390861339694, 0.02004125464090745, 5.057307846715489e-05, 280854000000, 
-0.04908048986306629, 0.01602214489220014, 0.0001452352597185491, 280859000000, 
-0.06526537522618804, 9.647877415063649e-05, -0.00022954894491417083, 280864000000, 
-0.06626878989903758, -0.031702580507567885, -0.00046104191845929113, 280869000000, 
-0.01769553638350054, 0.018492350845467454, -2.1139618738369194e-05, 280874000000, 
-0.08735018371306386, 0.0003672785717974197, 0.00025892435280686185, 280880000000, 
-0.09113422096050497, 0.047269850388056533, -9.683160276521068e-05, 280885000000, 
-0.046348238116541894, -0.0011100078813288707, 6.795026132339725e-05, 280890000000, 
-0.043697543588569074, 0.011730005365080136, 7.356613288514568e-05, 280895000000, 
-0.017669977275569567, -0.009163986991473454, 0.00019581862717405103, 280900000000, 
-0.04355950206072028, 0.014942064080932146, 0.0001642656349391369, 280905000000, 
-0.03039045934269832, 0.010249147995336086, -0.0002775798193473736, 280910000000, 
-0.051100088577994196, 0.013983753545367586, -0.00039945221446344853, 280915000000, 
-0.02806928839360087, -0.006249462765225688, -6.780085388615586e-06, 280920000000, 
-0.032141289386131505, -0.003732115115467345, 0.00011708740886882513, 280926000000, 
-0.06042149917589536, 0.0066163951068856485, 6.365344028213285e-05, 280931000000, 
-0.03314656160093271, 0.0076260800697366005, -0.00017881403708326757, 280936000000, 
-0.037147623526967204, 0.007700729595500819, -7.35333949478669e-05, 280941000000, 
-0.05689042508032874, -0.01774135030125701, -0.0001955543488692165, 280946000000, 
-0.03754168266465152, -0.0113926195285077, -0.00040540931098545887, 280951000000, 
-0.033285819354050776, 0.020977207309745748, -0.00018060293671378141, 280956000000, 
-0.06338262043581226, -0.016733131201598642, -0.00014610451704659213, 280961000000, 
-0.007538568622661765, 0.011760961776697824, 0.0001357082541819185, 280967000000, 
-0.022551629732889118, 0.006507177201534474, -4.805688962747572e-05, 280972000000, 
-0.028699816800133268, 0.04588730668952978, -0.00016956031939352795, 280977000000, 
-0.04536021982325708, -0.01782904405678884, 9.315883670617801e-05, 280982000000, 
-0.02775480282282645, -0.025828048818635353, 0.00015480506374400863, 280987000000, 
-0.04302390724024767, 0.0324807944899686, -1.7392080010108875e-05, 280992000000, 
-0.028646262077154587, -0.010997182949571796, 0.00031234846852274615, 280997000000, 
-0.005509163417973993, 0.03512945868331341, 3.6856364406312526e-05, 281002000000, 
-0.054494741338767604, 0.04331482316642928, -0.0001038539998121679, 281007000000, 
-0.03690983355263196, -0.020567641848446852, -0.00017614900451203136, 281013000000, 
-0.03493503011788442, 0.0210124118607205, 7.287693338223227e-05, 281018000000, 
-0.04858365899739696, -0.003731083952588513, 2.9509049911225413e-05, 281023000000, 
-0.0514572732014404, 0.008780176105810947, 0.0003870769660413537, 281028000000, 
-0.062213758452499976, 0.03029309698409244, 6.0693360866683984e-05, 281033000000, 
-0.03228032765760047, 0.030126626915213995, -0.000196808161191417, 281038000000, 
-0.03355994189616278, -0.00284775450270234, 8.73299119247794e-05, 281044000000, 
-0.06588533878701486, 0.028585602464294167, 0.00011430028171081249, 281049000000, 
-0.06998242550245774, -0.008873253132102927, -8.668976887256868e-05, 281054000000, 
-0.039846015866351094, 0.0055907625580358285, -0.00021160310622895715, 281060000000, 
-0.02835858287480786, 0.007417185251719279, -5.220102339898335e-05, 281065000000, 
-0.05364396340526467, 0.0229603510543104, -4.843692412686606e-05, 281070000000, 
-0.07983778663609067, 0.009865648967650074, -0.00014442705934417574, 281076000000, 
-0.026665535006398868, 0.016768324281095634, 6.347623729519528e-05, 281083000000, 
-0.06492190816395037, 0.03081692093446476, -0.000146358027753682, 281088000000, 
-0.051652642496904835, 0.02301444777645196, -4.085650289227368e-05, 281093000000, 
-0.04124264228558549, 0.003943872135981623, 9.589261394652323e-05, 281098000000, 
-0.051084289644035386, -0.008355007383384898, -8.764344018065408e-05, 281103000000, 
-0.04051957881876589, -0.040043136086852706, 7.936878269078376e-05, 281108000000, 
-0.03811992041849695, -0.0035350898266497217, -0.00015897084838391193, 281114000000, 
-0.047740120846747204, -0.024570103314995893, -0.0002864312512219242, 281119000000, 
-0.06741796183198576, 0.012515582671622618, 0.00018276635858383193, 281124000000, 
-0.07051549900758976, 0.013194247429174187, -0.0002180183169032516, 281129000000, 
-0.03861674378517817, 0.024437507236699237, -0.00027050585371759926, 281134000000, 
-0.021917682268793093, 0.04057646617357426, -1.1764395241588665e-05, 281139000000, 
-0.05552736491133466, -0.006651001513186971, 0.00024314252519987695, 281144000000, 
-0.07177586616112852, 0.0496895458503859, 0.00025685640854419806, 281149000000, 
-0.012765247251267008, 0.018778357639107065, 0.0001877196559938176, 281154000000, 
-0.03786611556272112, 0.014249355606566688, 4.3827479274688146e-05, 281159000000, 
-0.02215874651189218, -0.01267198113273926, -8.937349372239924e-05, 281164000000, 
-0.05099083489390229, 0.03570990690423227, 0.00018856128653298783, 281169000000, 
-0.02724843201420004, -0.02254966142971329, -0.0005179392932714208, 281175000000, 
-0.028174549921090822, 0.02668809863162401, -0.00013101857485695885, 281180000000, 
-0.03280646550686009, 0.011998678830885333, -0.0002813924077505265, 281185000000, 
-0.055479313667068715, 0.011518264566780283, -0.00010342417166362066, 281190000000, 
-0.09674454669380217, 0.01688510665419224, -0.0002962809108554385, 281195000000, 
-0.04545727750209424, -0.0034815313409402296, -0.00019877847029629799, 281201000000, 
-0.056242804210642414, -0.022784561128994123, -0.0001454078351993737, 281206000000, 
-0.05234628298427908, 0.025021600879688025, -0.0001451970137411446, 281211000000, 
-0.044738149205126414, -0.020580872978754522, -0.00012957043542891753, 281216000000, 
-0.08289191299697755, -0.0058434806330721865, -0.00014039779429135562, 281221000000, 
-0.041068604204222, -0.03743551699652331, -8.04863768411049e-05, 281227000000, 
-0.06691657448049203, -0.006134952728575553, -6.49725244618601e-05, 281232000000, 
-0.06762481401864921, 0.013336442308373738, -0.00026694720729026684, 281237000000, 
-0.05452474555138589, 0.006655720132300539, -0.00017554672569675676, 281242000000, 
-0.07019621579206536, 0.012377743662478343, -0.00019181506574783387, 281247000000, 
-0.04153101635610252, 0.015280080377913115, -5.248046666517839e-06, 281252000000, 
-0.05627557054431183, -0.003932218819656337, -0.00011024816385186207, 281257000000, 
-0.03875927365255927, -0.019225868248998253, 1.2555198080051548e-05, 281262000000, 
-0.03888831656220772, -0.01801379051413062, 9.117839308311293e-05, 281267000000, 
-0.08386883350859214, 0.00105751455433009, 8.229182050580779e-05, 281272000000, 
-0.05212781241536767, -0.014620972224187493, 7.081248371802836e-06, 281277000000, 
-0.09157537760549894, -0.02475155540294589, 0.0002774196989090921, 281282000000, 
-0.07784430442529625, 0.024664412362982318, -0.00042185558032812004, 281287000000, 
-0.03306308619098379, 0.00936305671517055, 0.00010965246211778584, 281292000000, 
-0.06256864949489839, 0.026308474923522444, 0.00023991671750497548, 281297000000, 
-0.08340358660279708, -0.02502974883893112, 6.713979676039722e-05, 281302000000, 
-0.07576465794058454, 0.025575271624870326, -1.7866669855215097e-05, 281307000000, 
-0.05726245326565496, 0.021934973402136092, -3.9201090278562044e-05, 281312000000, 
-0.06369543474264308, 0.0020207687332767206, -0.00013799281527263809, 281317000000, 
-0.036280389292401044, 0.016561137157347628, -0.0001322627234221236, 281322000000, 
-0.0351012555198528, 0.003907653960033241, 0.0001287411653141478, 281327000000, 
-0.0945638515870326, -0.029041288597624552, -0.00022267936563047605, 281332000000, 
-0.07525652402773353, 0.019719941118240415, 9.430891382786918e-05, 281337000000, 
-0.04177651917024993, 0.01645186353642028, 0.00011743643723371498, 281342000000, 
-0.05021459327779308, 0.0025120014604554206, -0.0001474844140398086, 281347000000, 
-0.04455342483261516, -0.009098521695316976, 7.523016713167449e-05, 281352000000, 
-0.05405010893160046, -0.006841006234993318, 6.424752385858896e-05, 281357000000, 
-0.049169050345477736, -0.0037560767265460925, -0.00029596700222738734, 281362000000, 
-0.049155633606934576, 0.02581828159074675, 0.00010900327265601863, 281367000000, 
-0.06446932465568243, -0.0031280795809956585, -7.274621035233871e-05, 281372000000, 
-0.047330045823504224, 0.0011421051046314329, 8.483528110740287e-05, 281377000000, 
-0.0832436526809424, 0.013155621911482479, 0.00013544347656246555, 281382000000, 
-0.028448715199998302, -0.00432200431565681, 9.683951432614138e-05, 281387000000, 
-0.07066169182024482, 0.020832621447463964, -0.0002710126734766359, 281392000000, 
-0.07232978186158229, 0.012139275661139676, 6.443789210388792e-05, 281397000000, 
-0.0685192729277207, 1.8231725645816068e-05, 8.348023688811381e-05, 281402000000, 
-0.07311210305913263, -0.017837308250968745, -8.068050362943252e-05, 281407000000, 
-0.0699339240951572, -0.010112184933865734, 5.5090538471157484e-05, 281412000000, 
-0.03975689058854871, -0.007810643907457546, -0.00040615288730216285, 281417000000, 
-0.06438977257116806, -0.016550036018052258, -0.000385120832692037, 281422000000, 
-0.057328070628249427, 0.032705218041119935, -0.00022104384135483121, 281427000000, 
-0.05871318003574904, -0.005917795050959601, 0.00022603333086911745, 281432000000, 
-0.07092290990677864, -0.0019740904965481524, 0.00011597614568285128, 281437000000, 
-0.06176838935307441, -0.010604702426050737, -0.00024878052301671624, 281442000000, 
-0.06062708852498338, 0.01942648941241983, -0.00038993991323319366, 281447000000, 
-0.06417294865490836, -0.0015618813788671202, -0.000140240741145836, 281452000000, 
-0.0633793694555324, -0.02167823003312339, -8.009130055543707e-05, 281457000000, 
-0.07114166718960746, 0.01656192034103807, -0.000220036653584112, 281462000000, 
-0.06486782252763766, 0.010642669764357397, 3.203090298353013e-05, 281467000000, 
-0.082753345252119, -0.0028664785822200903, 0.0002302810493665448, 281472000000, 
-0.06949271414653996, 0.0042685097927459125, 0.0003985718798949012, 281477000000, 
-0.09985232282262753, 7.1095400299373696e-06, 0.00034555553469456466, 281482000000, 
-0.057343403911765636, 0.007810664477457976, -0.00017100280219302437, 281488000000, 
-0.07186235302315334, -0.005345107101618693, -3.894771468246553e-05, 281493000000, 
-0.05722526363028065, -0.03839241500891212, 3.944828318914536e-05, 281498000000, 
-0.08038061128155485, -0.008951975944353634, 0.00016222556730722127, 281504000000, 
-0.03314585443845652, -0.01019114135148409, 8.456110567875067e-05, 281509000000, 
-0.04280545876444794, 0.004366783018814046, 0.0002705271931355454, 281514000000, 
-0.06338019301210367, 0.011360563758930077, -6.216159771844748e-06, 281519000000, 
-0.06663868590127393, 0.011467423554197602, 9.060096441354762e-05, 281524000000, 
-0.05342454425303228, 0.011351209690946837, -0.00016286443494057767, 281529000000, 
-0.06919424296101605, 0.03798806261356911, 1.4832859362246097e-05, 281534000000, 
-0.05979623725657407, 0.02404611540636849, -4.720214639221654e-05, 281541000000, 
-0.020035277192733063, 0.019819386743696703, -0.0002575883883859458, 281547000000, 
-0.029056331310378065, 4.371185531629185e-05, -7.787271001047739e-05, 281552000000, 
-0.04587763585397137, 0.00018568615454244873, 0.00013351576110098368, 281557000000, 
-0.05070982148096516, -0.00465105208617351, -0.0003526454337149343, 281562000000, 
-0.04812296077399854, 0.027242300454818357, -0.00015118542320380964, 281567000000, 
-0.07656830676871826, 0.03691340028908994, -8.562998174215907e-05, 281572000000, 
-0.06354651998267026, 0.004171837943533796, -0.00023237655228493403, 281577000000, 
-0.05303766893842762, 0.001523131324032745, 0.0001425875202742289, 281582000000, 
-0.038756448963498044, 0.012014931649086371, -4.153127246238744e-06, 281588000000, 
-0.04617124861861889, -0.0027643697279750115, -0.00010702757630946729, 281593000000, 
-0.06575706461826407, -0.024067821695133464, -0.0002638459671564959, 281598000000, 
-0.057953612783811136, 0.007624337732804222, 0.00012847374642551855, 281603000000, 
-0.05745764251859351, 0.010923729446153342, -9.774024571687141e-06, 281608000000, 
-0.05515707672800041, 0.03832258790016191, -8.665276847789704e-05, 281613000000, 
-0.08243475259936447, -0.02891174278977653, -0.00024484453724019106, 281618000000, 
-0.027252816622453685, 0.010882539748080103, 9.569120181409354e-05, 281623000000, 
-0.052874888566630536, 0.014026219019440981, -0.0002482073019519562, 281628000000, 
-0.02840125183055904, 0.011317035765646149, 0.00013897670132567084, 281633000000, 
-0.05100386960607417, 0.030275424293812928, -0.00019540437818886205, 281638000000, 
-0.026386745727096858, 0.035600132081387, -7.865709445394415e-05, 281643000000, 
-0.05134565285533735, -0.010478184748203476, 0.00035378501852870896, 281648000000, 
-0.04833547738011183, 0.007894057566879633, 0.00021512530380962154, 281653000000, 
-0.056278032665011676, -0.0371306350632946, 9.410164947570965e-05, 281658000000, 
-0.05435407807255029, 0.017566749426571583, 0.000173023219014398, 281663000000, 
-0.03659118865668369, -0.004073969552799652, -0.0001890952686853437, 281668000000, 
-0.036096143458976375, -0.017623685865244244, 0.00015306073366864111, 281673000000, 
-0.027091018207849846, -0.009585522145543061, 0.00032943532445906594, 281678000000, 
-0.0369051609500294, -0.0056738278890221755, -8.058020137917715e-05, 281683000000, 
-0.032238930123729824, -0.012386707962100993, 0.00030254121264635953, 281689000000, 
-0.039419914063606676, 0.009925320010412738, 8.764467464000211e-05, 281694000000, 
-0.05281687730487855, 0.01914252494374505, 0.00011722017761934475, 281699000000, 
-0.06556605204836485, 0.017006391398980535, -0.00013775370683227948, 281704000000, 
-0.05864109653438612, 0.034811625343076254, -0.00023631387184242585, 281709000000, 
-0.024463745914901136, -0.04055950231596887, -0.0002912660280180292, 281715000000, 
-0.04311649218930275, 0.009986053863018823, 0.00037652939504587623, 281720000000, 
-0.07463176709433626, -0.021407595093617744, 5.884870038714226e-05, 281726000000, 
-0.057897596667868145, 0.03957890436128089, -2.9707494864553803e-05, 281731000000, 
-0.05122011054033026, -0.00869058488640084, 9.528104525794036e-05, 281736000000, 
-0.04165834485536516, -0.010836894498569139, -2.9247644644799502e-05, 281741000000, 
-0.06063157537812216, 0.0005398915169072015, 0.0001868862557138948, 281746000000, 
-0.06508796940832258, 0.023589845143848903, -4.6786558012064895e-06, 281751000000, 
-0.08309091783527896, 0.006384087634151478, 0.00021016581524888192, 281756000000, 
-0.06516166792725105, -0.020025979481458973, -2.101375535439174e-06, 281761000000, 
-0.05399161704918756, -0.005477973146252976, 0.00025389510144776227, 281767000000, 
-0.050199191645549, 0.012359113035085502, -0.0003611458408097638, 281772000000, 
-0.0631952790236395, -0.03340305940642781, 0.0001240932120171221, 281779000000, 
-0.05867647579784168, -0.0025824266755205398, 0.00024354328493064379, 281784000000, 
-0.05027811708375916, -0.029058046084901836, -0.0002262343604598814, 281789000000, 
-0.07403766098285285, 0.030803594140762048, -4.4132056330182315e-06, 281795000000, 
-0.05342224018196693, 0.03321292754221315, -0.0003329789883685696, 281800000000, 
-0.07799452070718066, -0.015377796167468276, 0.00010818949563902035, 281805000000, 
-0.060018953835828684, 0.049073060249876066, -8.243935315386338e-06, 281810000000, 
-0.047845897913175825, -0.032008825331595867, 0.00011540624990428737, 281815000000, 
-0.0411569713536167, 0.016833225705851208, -4.988055968919461e-05, 281822000000, 
-0.058495912150288404, 0.013015896511417522, -0.00032951944553570426, 281829000000, 
-0.06451583449512495, 0.01647956418187316, 0.00013509812180885318, 281834000000, 
-0.08157192249150563, -0.030890029503808057, 0.0002266985575896195, 281839000000, 
-0.05971022894940854, -0.014332915449087168, -0.0001329856720794883, 281844000000, 
-0.038390519270734724, 0.0025983858932809396, 0.00011766755416914464, 281849000000, 
-0.05504265132577567, 0.0358695834920537, 0.00023674124876376125, 281854000000, 
-0.03606050310857483, -0.0012294436472999176, -0.00016485763022491687, 281859000000, 
-0.0594016439483927, -0.031213649226343995, -0.00021991852445438237, 281864000000, 
-0.09152392077135611, 0.020823980960308637, -0.00019864516008857996, 281869000000, 
-0.053712455549926374, 0.017705948245283203, 2.17182226273984e-05, 281874000000, 
-0.06887054652124604, 0.04139844160201974, 0.0002752126085468637, 281879000000, 
-0.02340636347627205, 0.005852232919243378, -0.0003828838277155815, 281884000000, 
-0.02857486447908914, -0.023674459443334503, -6.8366077523382e-05, 281890000000, 
-0.058909933044747315, 0.02513721194114514, 7.883766570168993e-05, 281896000000, 
-0.0417459946205682, -0.03165981435826134, -5.577470651660809e-05, 281901000000, 
-0.04901986936244134, -0.012538705649786824, -9.031482926474425e-05, 281907000000, 
-0.022249979389475615, 0.012620432128938505, 3.97658096880659e-05, 281912000000, 
-0.04016079805341191, 0.026171226294993553, 5.502576579667918e-05, 281917000000, 
-0.01782237274472668, -0.01742312625705762, -5.613349171295514e-05, 281922000000, 
-0.06337629188397723, -0.005064585914308061, -5.0018790614993e-05, 281928000000, 
-0.07278195563235988, 0.014265628412960253, 3.994972167837064e-05, 281933000000, 
-0.08493740999591466, 0.010470617993107775, 0.0002660389049483114, 281938000000, 
-0.09125733980358207, 0.0023183628159174265, -0.00034736354832014634, 281943000000, 
-0.035642326168181526, 0.011693691152487773, -0.00032388883944883937, 281948000000, 
-0.06845706789368132, -0.02464287960877288, 0.0001831019985401589, 281953000000, 
-0.052076997224711874, -0.0158928987505646, 5.3604673545315486e-05, 281958000000, 
-0.07450934415784269, -0.025436210537334813, -8.026052868907592e-05, 281963000000, 
-0.049363382200134365, 0.0056116470945259565, 0.00012342132043060015, 281968000000, 
-0.07595276662252014, 0.03563383168607155, 9.196465084296996e-05, 281973000000, 
-0.08094362332788817, 0.0037861555216525556, -4.393642029171566e-05, 281978000000, 
-0.07228326993276266, -0.004148515228545065, 7.160877625528266e-05, 281983000000, 
-0.04377184905552261, 0.019494970038038552, -1.792989500970865e-05, 281988000000, 
-0.06920207610111875, 0.005466652973575486, -0.0001322444048660382, 281993000000, 
-0.05857902750029774, 0.0014770000922028105, 0.0003053201392441592, 281998000000, 
-0.06629027050830588, -0.014016675145054162, 0.00012200083855472095, 282003000000, 
-0.05611072473302981, 0.0041879859745797285, 3.0257560647396003e-05, 282008000000, 
-0.03524777028400633, 0.024676385891913455, -0.00021333587427520645, 282013000000, 
-0.03968968211537141, 0.012250768506677171, -4.536869909806654e-05, 282018000000, 
-0.04449556723210822, 0.03670385454675224, -1.5643987786257804e-05, 282023000000, 
-0.0533713369573907, 0.012845173501447867, 0.00035816722340391153, 282030000000, 
-0.0803488872653992, 0.012179345927363569, 5.286751520833566e-05, 282035000000, 
-0.07741227866630224, 0.010764972277387744, -6.463372650262507e-05, 282040000000, 
-0.05482752038175986, -0.004292224650931456, -1.3777178547245176e-05, 282045000000, 
-0.0598228078874545, 0.007033269683714622, 0.0002840342491215863, 282050000000, 
-0.07941513422212737, -0.017168316042734527, 7.084916736932868e-05, 282055000000, 
-0.07423125683771326, 0.0042635889824337815, -2.7121762702875473e-05, 282060000000, 
-0.06688968568272706, -0.024186732168009005, 0.00016275996370669903, 282066000000, 
-0.059407198478802915, -0.01895918353784426, -0.0005949250252329522, 282071000000, 
-0.06103060192534387, 0.020767782008073638, -0.00019091543905965544, 282077000000, 
-0.04557227270804966, -0.02711991072111094, 0.0003284383236047798, 282082000000, 
-0.06680439421126327, 0.016914322087517714, 2.680272842727448e-05, 282087000000, 
-0.04927372425866022, 0.01620403107342231, -0.0002692086231480267, 282092000000, 
-0.04382987953003499, 0.0064726032274071595, 0.0002087525772276326, 282097000000, 
-0.05118684753047634, -0.015419422351672384, 0.0004323736086859989, 282103000000, 
-0.06527744768852169, 0.004437906655914318, 0.00046200855140300276, 282108000000, 
-0.037516170482465916, -0.010990396646449971, -0.0002560128432699698, 282113000000, 
-0.05756842007229244, -0.015442205891529, -0.00013783351429340037, 282118000000, 
-0.057945932496560805, 0.014308244448974654, 1.9517683501223745e-05, 282123000000, 
-0.06052291573722498, 0.014707346641266116, -0.00019506179644732043, 282128000000, 
-0.06079675863870689, 0.03819427248498972, 0.0001197412212628616, 282133000000, 
-0.056216502784761375, 0.040056993130989454, 0.0003156577249530516, 282139000000, 
-0.06911382369423753, 0.003714582664318464, 0.00021944091254171114, 282144000000, 
-0.09224786764988432, -0.0016040909762381297, -0.00042956383421368456, 282149000000, 
-0.05670483494129294, -0.02772214224845584, -0.0002671484330315018, 282155000000, 
-0.042648769946450664, 0.0011615231474089694, 0.00014122044056099085, 282160000000, 
-0.05325847509018279, -0.003630000707159375, -0.00023602863638666504, 282165000000, 
-0.09126476317150263, -0.0035041375524551025, -0.00011625992776200658, 282170000000, 
-0.031224478877448034, -0.006025826330952793, 0.00015822044108896504, 282175000000, 
-0.04155606288368179, 0.0007927647480680847, 1.0362736039225816e-05, 282180000000, 
-0.08656571120802227, -0.016583559111093268, -0.00012836317721081288, 282185000000, 
-0.01958592598361812, 0.0025782252984459316, -2.130817346834637e-05, 282190000000, 
-0.03242479514949114, -0.008035786392659491, -0.0002578725192142825, 282195000000, 
-0.03806637388347482, -0.02256888733043833, 0.000392071991359408, 282200000000, 
-0.06214303892350416, -0.013016197053342992, 1.747577808552899e-05, 282205000000, 
-0.06270395026701828, -0.014210450727036836, 7.451683432500987e-05, 282211000000, 
-0.053813415842449266, -0.0008443489296111659, -0.0002035043683654908, 282216000000, 
-0.07367222069149185, 0.0011064824711021573, -0.0003436219820289511, 282221000000, 
-0.05796527239366809, 0.008416141678909311, -8.213235751163653e-05, 282226000000, 
-0.0639145370151794, 0.024494816846595047, 0.00023348193705217968, 282231000000, 
-0.05372680758602999, 0.0001031564390285039, -0.00022713887205990938, 282236000000, 
-0.04434085980859697, 0.016209733365229878, 8.76151580720958e-06, 282241000000, 
-0.029492714822060454, -0.003728476620330587, 0.00030057695298894014, 282246000000, 
-0.04964002208424323, -0.015108759366748981, -0.00015530883366337086, 282251000000, 
-0.05497380670009425, -0.013036566649852147, 0.0002559656217763539, 282256000000, 
-0.05894849553547016, -0.005834547109921857, -0.00011593108418902893, 282261000000, 
-0.031435048004392105, -0.0007436259633991406, 0.00016859667806847398, 282266000000, 
-0.061847563859670884, -0.02116046369963056, 0.0003856908538494139, 282271000000, 
-0.03958795461431553, 0.039950881303448454, 0.00012210747444616323, 282276000000, 
-0.07111819704056316, 0.013413380187057218, -4.41806702869596e-05, 282281000000, 
-0.056228457022486765, 0.01705030241479499, -0.0001150261768363584, 282286000000, 
-0.06480880956881041, -0.01000174852557522, 0.00014776795641251736, 282291000000, 
-0.03375391232780624, 0.0017385132180619397, -4.0239019060044876e-05, 282296000000, 
-0.021541730902288166, 0.011346500400606209, 9.891031366625203e-05, 282301000000, 
-0.03512608102433942, -0.0033722293883587653, 0.00012784315449746464, 282306000000, 
-0.05434704772245045, 0.008440377519018022, 6.517416223893081e-05, 282311000000, 
-0.06899583847410273, 0.0147590365976287, -5.1787701325090176e-05, 282316000000, 
-0.06291850605349014, -0.005596904339964808, 0.00019378211062049406, 282321000000, 
-0.06421100093154314, 0.0073917560151406285, 0.00022988563677947573, 282326000000, 
-0.04294962391450551, -0.022397691521528575, 0.00036534879437232957, 282331000000, 
-0.043593079562723486, -0.001068985638766896, -0.0002836487984388185, 282336000000, 
-0.05128185884416693, 0.03296465239310623, -0.0003095097867099465, 282341000000, 
-0.0554647700869508, 0.020877569979286324, -7.968483907205152e-05, 282346000000, 
-0.03525419379734544, 0.00789371978850367, -0.00011133324532673543, 282351000000, 
-0.036267450354789205, 0.00019586027700795616, -0.0002965095719626971, 282356000000, 
-0.05110958132241594, 0.00037362710608265163, 8.45978561667369e-05, 282361000000, 
-0.07246864720979981, 0.013327758034979095, 0.0003646369563781658, 282366000000, 
-0.07340920138688886, -0.0075206219373750325, -1.4862776597293008e-05, 282371000000, 
-0.0425103670045554, 0.014937933903606473, 0.00018047171178214757, 282376000000, 
-0.04777260759477197, 0.0025785565522434832, 0.0004327833347313498, 282381000000, 
-0.05219211224766729, -0.021417294435499824, 0.00025423950409387083, 282386000000, 
-0.04417725534652282, 0.0007774496887423065, -5.606596916103744e-05, 282391000000, 
-0.0622396061068362, 0.010095521025299963, -0.00010480096480750796, 282396000000, 
-0.06416864277393985, -0.010164333887519578, -0.00032300820181914317, 282401000000, 
-0.02928654828493077, 0.008355372647853661, -0.00012166600351266348, 282406000000, 
-0.04936082278297503, -0.014191070061062712, -0.00012461339230009956, 282411000000, 
-0.03674886351369837, 0.011877070112129216, -7.306916889950492e-05, 282416000000, 
-0.05305535145397065, -0.0027386543801344106, 0.00015018373193061708, 282421000000, 
-0.07187747568377843, -0.006308740263912343, 0.00018322213458952678, 282426000000, 
-0.05010479442931926, -0.003655878106541585, -0.00014642319177981815, 282431000000, 
-0.06036778104402908, 0.0023663687288864453, -0.0001537480958122225, 282436000000, 
-0.051437712737698225, -0.00852083611716813, -0.0005003832032039932, 282441000000, 
-0.09361490527494022, 0.034378774528397486, -0.0002633744478475087, 282446000000, 
-0.04660474393088022, 0.00432570894260925, 0.0004513380170916655, 282452000000, 
-0.06508727052364141, -0.018030989700911864, 0.0002340377359657914, 282458000000, 
-0.07192463975331351, -0.0005787289816326123, -0.000252972770805096, 282462000000, 
-0.06850668339943343, 0.011310907760607853, 0.0004485211907571489, 282467000000, 
-0.07676400926420238, -0.01995947316332649, 0.00015672710741746783, 282472000000, 
-0.056728349131923525, 0.022270997430614833, 6.253380225151875e-05, 282477000000, 
-0.06157209043655855, -0.018558747375477237, 6.134017709617081e-05, 282482000000, 
-0.058744814150335195, 0.00962609604209301, 0.00019244275705016366, 282488000000, 
-0.06554349255340546, 0.006477746623701702, -9.184948416493507e-05, 282493000000, 
-0.07868098697643938, -0.02829056112232514, -0.0001721069231743356, 282498000000, 
-0.05651560834875312, 0.03284509512449818, -0.00016015153029564095, 282503000000, 
-0.06633709614597463, 0.022668120371743917, 0.0004524062902661714, 282508000000, 
-0.05315176017565667, -0.006323927615376653, -4.061390664458884e-05, 282514000000, 
-0.0525374886416477, -0.02125489106582297, 0.00016752819793374075, 282519000000, 
-0.08902025602014402, -0.015447018407209011, -0.0001396254876685005, 282525000000, 
-0.023061788470178368, -0.01063518679198911, -0.0001512907636496269, 282530000000, 
-0.06939034128081951, 0.02629968033571555, 0.0003214820333365744, 282535000000, 
-0.03932584491864268, 0.045166547874016985, 0.00019405722613922977, 282540000000, 
-0.07678036933716453, 0.03164772889751985, -0.00011022742215798908, 282545000000, 
-0.06588164052484442, -0.02508754908815974, 0.00012179602094825123, 282550000000, 
-0.050249495308748254, 0.009496114918239778, -0.00022729326144387135, 282555000000, 
-0.07222074271035102, -0.023598996065083224, -0.0002741129657056275, 282560000000, 
-0.066337582010842, -0.012263678844002758, -3.098441878973913e-06, 282565000000, 
-0.07871694960474611, 0.019161434886349107, -0.0002807926824346923, 282570000000, 
-0.09919116650755583, -0.016165628601347615, 0.0003866723540826721, 282576000000, 
-0.056230529704530414, -0.011899820607429855, 8.098524114176991e-06, 282581000000, 
-0.06063232794570154, -0.017147433310337166, -6.60273912133366e-05, 282586000000, 
-0.07364545622683177, -0.003794464983179251, 4.7235203899943836e-05, 282591000000, 
-0.023682639860336037, -0.00793050262233612, -0.00020952479930052152, 282596000000, 
-0.08144044956629529, 0.011239902291847414, 7.470615384301875e-05, 282601000000, 
-0.05013991152436087, -0.02899956090826059, 5.9110489473961696e-05, 282606000000, 
-0.07411265895890944, -0.0251946469493139, -0.00040525976276889117, 282611000000, 
-0.032672841425644736, -0.008750240561143105, -8.56040924278684e-05, 282616000000, 
-0.06766634005699285, -0.017598049649682142, 0.00019128921855432492, 282621000000, 
-0.08374330936483404, -0.0038580178692922645, 5.306085062943321e-05, 282626000000, 
-0.0321339782251671, 0.0023013771920535725, -2.1980815170288834e-05, 282631000000, 
-0.03733634022917303, 0.012604986987410706, 0.00032968912749576084, 282636000000, 
-0.06720034231868746, -0.0005451450442032356, -0.0004180762645545134, 282641000000, 
-0.05380957474042211, -0.0007758090411400533, 9.751399998915886e-05, 282646000000, 
-0.07326667256768353, 0.017826549200302695, -0.00032990230451200787, 282651000000, 
-0.06759596322997194, 0.019540201320041774, -0.00019260175273351827, 282656000000, 
-0.06399572414665929, 0.015430119580565579, -0.00017673315424450765, 282661000000, 
-0.08133532145217727, -0.031687353794089754, -0.00018731892380993085, 282666000000, 
-0.06178687955116944, -0.018589060692238212, -0.00011333593557384101, 282671000000, 
-0.08850636979007334, -0.016627603830597033, 0.00024152451049184952, 282676000000, 
-0.08968439593927403, -0.012828206225924317, 0.00014991406609251155, 282681000000, 
-0.06206436165718929, -0.012805061075870799, -0.0001807860257170054, 282686000000, 
-0.03131839100846481, 0.0006595997931148946, 6.350144411556606e-05, 282691000000, 
-0.082945084017126, 0.011260690654846797, -2.8193435743388335e-05, 282696000000, 
-0.05062025048007504, -0.004911636096432882, 0.00015953347353826584, 282701000000, 
-0.08730356115667248, -0.02578993633275288, 0.00017906485616443288, 282706000000, 
-0.024571623044936618, 0.01910441310149905, 0.0003426025170386355, 282711000000, 
-0.060796200160096084, -0.004107381091921477, -0.00021386606480836633, 282716000000, 
-0.03435911408794093, 0.007934036529172989, -0.00016904187686765817, 282721000000, 
-0.06176635540188431, -0.026304118068525246, -0.00030195098964604897, 282726000000, 
-0.058090266356126664, 0.0012877306874935477, 7.417047461305555e-05, 282731000000, 
-0.05131196651850415, 0.01351357305139432, -5.292679058436226e-05, 282736000000, 
-0.04565945019988799, -0.012321185054815212, -1.647848707316848e-05, 282741000000, 
-0.08534244060940972, -0.005245274195966503, -6.900932836326868e-05, 282746000000, 
-0.025199436471210493, -0.02105105057510995, -0.0001475321007993955, 282751000000, 
-0.0462038676878693, 4.4290710169118415e-05, -0.00016794067954971738, 282756000000, 
-0.04656657666452402, 0.00030473422678884863, 4.330600410943435e-05, 282761000000, 
-0.046110765116250244, -0.0006397502761435472, -0.00012013230861332707, 282766000000, 
-0.05410539750735239, -0.023846568189988208, 0.00013322859410015887, 282771000000, 
-0.04730222487162549, 0.017503157794738367, -3.9007019382459065e-05, 282776000000, 
-0.06708258042626786, 0.010795684073052357, -0.0003025613768679985, 282781000000, 
-0.08875036398124664, -0.0011325154682026424, 0.00030872591282585677, 282786000000, 
-0.051462950896902025, 0.0008065148250311117, -2.3138333468432844e-05, 282791000000, 
-0.058158677721136205, -0.006943282153718266, 0.0003961203236440118, 282796000000, 
-0.061054330550584124, -0.0063434241369613, -2.5374054088159825e-05, 282801000000, 
-0.043826141544581226, 0.013921459307528337, 0.00010148484029401626, 282806000000, 
-0.049421081604804656, 0.0006781155669617189, 0.00026212434992256393, 282814000000, 
-0.057239368943633934, -0.017474433951083824, 0.00015744201191347556, 282819000000, 
-0.06732530485616041, -0.008686697554403499, -6.635724621827423e-05, 282826000000, 
-0.030862077960682605, 0.0024669508018488784, 0.00012856837077084113, 282831000000, 
-0.0636405646465571, -0.00010668215232422656, -4.2149394534309654e-05, 282836000000, 
-0.04454080855800499, -0.0021446237307564363, 0.0001245985542332917, 282841000000, 
-0.057935683602460576, -0.005619992434382621, 4.60880343778641e-05, 282846000000, 
-0.06437413266751166, 0.015062360346024197, -0.0001716526837878769, 282851000000, 
-0.0543655061244785, 0.00725556221900907, -0.00023774226608107787, 282856000000, 
-0.05918830932754364, 0.030309687580426764, 0.00017732587704644292, 282861000000, 
-0.05169287128088375, 0.02670112024168408, 4.571738880101001e-05, 282866000000, 
-0.056834666014766846, 0.0019213821558962986, -0.00015150908946270304, 282871000000, 
-0.045555717129473504, 0.0004892332596444604, 7.089810475765086e-05, 282876000000, 
-0.03521224440392495, 0.0177206470878611, -0.0002115141539476335, 282882000000, 
-0.056692530671518616, -0.021228976452313232, -5.289772477174517e-05, 282887000000, 
-0.03428095961602727, -0.023597723956568777, 8.403303855931923e-05, 282892000000, 
-0.04004109322758903, -0.0004966690669788525, -4.3090168592705384e-05, 282897000000, 
-0.06889489399451626, 0.0010160456873861848, 8.963745380193332e-05, 282902000000, 
-0.07514395972897055, 0.001292369551501825, -3.7819940201871305e-05, 282907000000, 
-0.040777020664363006, -0.04298866437573435, -5.9172324172936245e-05, 282912000000, 
-0.03991758273036851, -0.013032465294342193, -0.0002067163449760672, 282918000000, 
-0.06398414622915631, 0.012462038962253005, 3.258088094423598e-06, 282923000000, 
-0.05925164963745239, -0.009652165055937311, 2.6129847716727635e-05, 282928000000, 
-0.05925311129752455, 0.029761726650452403, 0.00031313671466175896, 282933000000, 
-0.07257920605405184, -0.03545957414352327, 0.00013814957940210516, 282939000000, 
-0.06964675475678155, -0.0004920180949288266, -7.020239089059164e-05, 282944000000, 
-0.052037073042457985, -0.002389467458484837, 5.259878717391175e-05, 282949000000, 
-0.09159891559791433, 0.017946254426663175, -0.0002233378914529794, 282954000000, 
-0.05581585364269084, -0.019533955780718, -0.00019064064784533584, 282959000000, 
-0.043762392043470766, -0.010435404418910615, 0.00016854290779627547, 282964000000, 
-0.06734110020634007, -0.012291156731901351, 4.416859715571311e-06, 282969000000, 
-0.023169381886482182, 0.023993945241123565, -8.201407872336079e-05, 282974000000, 
-0.0628975371488734, 0.013014741862687449, -0.00012564516085843534, 282980000000, 
-0.0685520446267136, -0.02980657569883099, -4.742559114820247e-05, 282985000000, 
-0.07434848192941321, -0.01884804233658495, 0.00017748843260882946, 282990000000, 
-0.05212349318113489, -0.00551394341571106, -6.11384598636192e-05, 282995000000, 
-0.06588373220838377, 0.03597186605487912, -0.00023761898244293347, 283000000000, 
-0.05283889721891536, 0.011912764832816964, 0.0003626190937426033, 283006000000, 
-0.05463624276670712, 0.01970288127269293, 0.0001199584126401359, 283011000000, 
-0.047473145666339714, -0.02775818338967166, 3.349117808678912e-05, 283016000000, 
-0.06477572403662839, 0.004894276269596503, -5.377982599293604e-06, 283021000000, 
-0.06042790454627081, -0.005289758675206537, 0.00034899684890646803, 283026000000, 
-0.07258804549375417, 0.013194000424407512, 6.241261595564176e-05, 283031000000, 
-0.028897788253948318, 0.01078085497108149, -3.9475866406062905e-05, 283037000000, 
-0.07799648959607311, 0.010323003914492937, 1.2077403657663032e-05, 283042000000, 
-0.05838734190659686, 0.018785689256366832, -0.00020247691801798812, 283047000000, 
-0.044317987734775736, 0.015165717167365304, -4.6666119258840494e-06, 283052000000, 
-0.07394465620970607, 0.009332913224167638, -0.0002254324083900388, 283057000000, 
-0.056190161477316, -0.0060274291335309736, -7.852002656444957e-05, 283062000000, 
-0.05377511840376149, 0.0032201635023767455, 0.00042511075493170973, 283067000000, 
-0.03612337542899685, 0.006770109489780534, -8.313992849145837e-05, 283072000000, 
-0.0518882705980764, -0.013982873024569634, 7.270332226646275e-05, 283077000000, 
-0.050568401749752655, 0.0033634613728044387, 7.212322479464209e-05, 283082000000, 
-0.07709961665157736, 0.02905830532366745, 0.00016417500230385176, 283087000000, 
-0.06715213066247418, -0.007062305785585142, -0.0002420293060827718, 283092000000, 
-0.04211159769727385, 0.013397335284595736, 0.00020058188519889386, 283097000000, 
-0.049281894325284785, -0.008793309428857058, 2.7484305232144084e-05, 283102000000, 
-0.059680103752462445, -0.005970556555818846, -0.00023870980210613765, 283107000000, 
-0.06671698582308587, 0.007317886829453888, -3.979515885960385e-05, 283112000000, 
-0.08149467336350504, -0.011444947084799463, 7.817894904576087e-05, 283117000000, 
-0.08982628124618412, -0.019561632405461358, -0.00019541523018554106, 283122000000, 
-0.01491053424518591, 0.005553596322568729, 0.00025803016154874803, 283127000000, 
-0.061528284112479764, 0.0003010308454312507, -5.896962636379582e-05, 283132000000, 
-0.0571638871299593, 0.0017902734126693837, -0.00038637313178591564, 283137000000, 
-0.06727687816076924, -0.018589369916619258, 0.00013698872275521573, 283142000000, 
-0.029817416399398354, -0.00952235349642802, 0.00016901583650680816, 283147000000, 
-0.0360289510087512, 0.000998537519613623, 0.0003139681388208572, 283152000000, 
-0.04698090054301883, 0.010786936589959618, 0.0001859115139431427, 283157000000, 
-0.05725428910078544, -0.024522397185236477, 0.0001696865183979685, 283162000000, 
-0.07538595875605053, 0.004259389850670264, 0.00014172456167195802, 283167000000, 
-0.04470219920493788, 0.014483700768806508, 0.00012004179361800118, 283173000000, 
-0.021713655119990537, 0.0024838488112198073, -0.0003544725423687404, 283178000000, 
-0.04160986098508353, -0.039234467468207905, 0.0002526867732990825, 283184000000, 
-0.06774744527217871, -0.022301570010474087, -0.0001579166479746274, 283189000000, 
-0.058346192227986815, 0.007012273540878862, 0.00012707045539888035, 283194000000, 
-0.08601737346249291, 0.013780861787301188, 0.00040239501918011084, 283199000000, 
-0.07005955501173164, 0.0035495473981746388, 0.0002836175887175514, 283204000000, 
-0.04724862990798964, -0.016948220287607254, -0.00013549096882244275, 283209000000, 
-0.035893148128355465, 0.002282149247115034, 5.791051855396367e-05, 283214000000, 
-0.05802680187264948, -0.023296050156209787, 3.7265670596427024e-05, 283219000000, 
-0.09667071389429954, -0.03393604681978181, 0.0002074627537616802, 283224000000, 
-0.03466161744836425, -0.012575644814523529, -0.00027584760417280815, 283229000000, 
-0.04967609001352908, -0.015626267966426476, 1.4237501219807254e-05, 283234000000, 
-0.09785562854597041, -0.01544131460246942, 0.00037317427369676793, 283239000000, 
-0.04474377303973928, -0.020282208953873514, 0.00016833129376284394, 283244000000, 
-0.040295281742770146, -0.030270827509853285, 7.519633339421213e-05, 283249000000, 
-0.06452864348665374, -0.025158133144061814, 0.0004927691723863837, 283254000000, 
-0.07634351052969868, -0.010342573677283319, -0.00028642031978988745, 283259000000, 
-0.04862518157188973, 0.011613491001945968, 0.00026987984983794697, 283264000000, 
-0.05157374362906823, 0.0034393203572494653, 9.948381541165581e-05, 283269000000, 
-0.0506088283234672, 0.02920381686343875, 1.061793300147472e-05, 283274000000, 
-0.07141566735510918, 0.0048085834286789465, 0.00030645623956844476, 283279000000, 
-0.09772956313359224, 0.002065904190775235, 0.00010285396621354403, 283284000000, 
-0.03820669775445434, 0.04560695764695622, -0.00017649086053569586, 283289000000, 
-0.038644181339813496, 0.002574014774205757, -3.758551920783175e-05, 283294000000, 
-0.0622256289171254, 0.003895684551284381, 0.00014006904693839942, 283299000000, 
-0.055020409733655, -0.0007781334595622872, -0.00022335523229213952, 283304000000, 
-0.07722228096331338, -0.020125874319223473, 8.215979132026895e-05, 283309000000, 
-0.0516375992008967, -0.007378679081192226, -0.0001248087525564824, 283314000000, 
-0.018376903898395573, -0.010065413234767104, 0.0004305757415947666, 283319000000, 
-0.029528743385482087, -0.0038231724633719893, 6.827263888334621e-05, 283324000000, 
-0.07371483108614921, -0.0071063171117382124, -0.0001563611951778282, 283329000000, 
-0.07008595327895295, -0.0003756602373568734, -0.00022612858588276873, 283334000000, 
-0.04747711107627097, 0.010542718493577638, 3.844589175506926e-05, 283339000000, 
-0.06454170813933627, 0.013024657256233448, 0.0001840103477791317, 283344000000, 
-0.04221060318281671, -0.00327161622715921, 2.1303073379987354e-05, 283349000000, 
-0.055610453864756305, -0.017620631594964485, -0.00022948497106989576, 283354000000, 
-0.024877195975815128, -0.02883772286086976, 0.00025474615305463654, 283360000000, 
-0.029307540114568924, 0.022794714085513652, -5.248295360493679e-05, 283366000000, 
-0.06291335446229838, -0.02407570162769057, 1.2099936129117836e-05, 283371000000, 
-0.02355575709979556, 0.012908464811868319, 0.0001506086564801856, 283376000000, 
-0.03343232165919674, 0.02785941397414288, -0.00034588860053199244, 283381000000, 
-0.06117929969720222, -0.0355979009475162, 0.00029217221424659474, 283386000000, 
-0.06302871297509678, -0.008979573438614058, 0.000197271058343321, 283391000000, 
-0.046043328239298624, -0.015980202824620798, 5.747426900503732e-05, 283396000000, 
-0.03511017783198857, 0.03622019490690403, -4.196237535298805e-05, 283401000000, 
-0.033960357773707754, -0.028256465094434767, 6.745286445248647e-05, 283407000000, 
-0.03589222106537128, 0.008076935928857078, -3.5484610421437445e-05, 283414000000, 
-0.05357571592105441, -0.0007037164543728539, 4.247138318864097e-05, 283419000000, 
-0.029489458065468255, 0.01265506664245561, 0.00015777976494263051, 283424000000, 
-0.049170867570073176, 0.012741199682238176, 0.0002593359106429197, 283429000000, 
-0.04740672256807854, 0.02799383105162216, 0.00025601704047339307, 283434000000, 
-0.04839602449852434, 0.002688289909317367, -0.0001518315173909804, 283439000000, 
-0.04635388272344519, 0.02532232778947216, 0.00045415279263931127, 283444000000, 
-0.06560116859533922, 0.0008483809320136918, 0.0001506009296930413, 283449000000, 
-0.11088231738251289, 0.0016265194257145683, 0.00018333956149923367, 283455000000, 
-0.07858410213630833, 0.03507488253053013, 0.0002531244726295453, 283460000000, 
-0.06229603575928674, 0.012496422899061204, 0.0005754688234112118, 283465000000, 
-0.046661535053150245, -0.007263747594748312, -3.66640299799382e-05, 283470000000, 
-0.061542412980028785, 0.028878768478440984, 0.000320143800340578, 283475000000, 
-0.05290668953435586, 0.032365298178482174, -1.792082144951037e-05, 283480000000, 
-0.07377401353880217, 0.0021866741900965917, -0.0003793130619975409, 283485000000, 
-0.04676118718579704, -0.01037917206798148, -0.0002348080070190415, 283490000000, 
-0.08910559079770855, -0.0010876976582615697, -4.049636801514277e-05, 283495000000, 
-0.04636119730660102, 0.0011415907452746838, -3.424145874699557e-05, 283500000000, 
-0.10492383608137273, -0.003308260307022683, 0.0003398813836409681, 283506000000, 
-0.08855352656389759, 8.38382057947644e-05, -0.0003656555646899207, 283511000000, 
-0.04263548991262965, -0.009849115897050403, 7.648156053233322e-05, 283516000000, 
-0.059693602984924266, 0.015361177120999487, -0.00015720382714983297, 283521000000, 
-0.055133071378866444, 0.00349909882439559, -0.00010045623633569352, 283526000000, 
-0.04034419021693136, -0.0031067701480087433, 0.00010487118299762285, 283531000000, 
-0.03924258289034902, 0.0029817717695210227, -4.474369206693024e-05, 283536000000, 
-0.0717735537059011, 0.04331158319859845, 0.0001483238619836971, 283541000000, 
-0.051604270133525545, -0.010825228529665826, -0.00018737293642794142, 283546000000, 
-0.08298358197167799, 0.004287956440347359, -0.00046042104315442586, 283551000000, 
-0.04599260520592279, -0.012442665226506479, -0.0003001584784094779, 283556000000, 
-0.06940586320382862, 0.008431815386263666, -7.658535250238294e-05, 283561000000, 
-0.0529012879408068, -0.006825071038512463, -0.00016401076615289468, 283566000000, 
-0.035382398889796086, 0.03941823825277841, -6.751857618609551e-05, 283571000000, 
-0.07538542116430685, -0.018676059215782446, -0.0002977506610346466, 283576000000, 
-0.05787958397015648, -0.023357145417749282, 0.0002621551351303363, 283581000000, 
-0.060917329242480237, -0.019378220299442788, -5.6707658037079434e-05, 283587000000, 
-0.0517532612003893, 0.016602704685725726, -0.0002227930922787742, 283592000000, 
-0.0718708913792592, -0.0037607087767616157, 4.0227736706654176e-05, 283597000000, 
-0.04134111154789326, -0.021218623200660272, 0.000376830795180123, 283602000000, 
-0.03285555622334445, -0.01730678062598694, 0.00018906031385357291, 283607000000, 
-0.07048193311183246, -0.001840075736962489, -0.00022849089109320633, 283613000000, 
-0.06342876043525005, -0.014037365215871006, -0.0002596485193910877, 283618000000, 
-0.05583926512564689, -0.03850760474766224, -0.00014717371394587473, 283623000000, 
-0.04215777221076422, -0.04369253178138985, 4.586848593171089e-05, 283628000000, 
-0.07007507104652838, -0.001105531283526532, 0.0003436950293219789, 283634000000, 
-0.0801281532187868, 0.002163425083793263, -0.00018364016729238844, 283642000000, 
-0.04998562043757759, 0.01859930574813523, -0.00033334826891630906, 283647000000, 
-0.05521759193654263, -0.0040186071827347705, 0.00010087132105214172, 283652000000, 
-0.05497270529188024, -0.018484410925410994, 0.00011450417820113946, 283657000000, 
-0.0316230583862359, -0.025587279991692156, -0.00022957034058582656, 283662000000, 
-0.045716064209746714, 0.013276207340679504, 0.0004360813889410694, 283667000000, 
-0.055313006707294485, -0.002658037611327276, 5.700970629685338e-05, 283672000000, 
-0.054665302597428383, -0.024012855676546544, 0.00019842233502471955, 283677000000, 
-0.014376945398400412, -0.0012039973224807058, -0.00019328706516959077, 283682000000, 
-0.055381346364604726, 0.009173147175879358, -7.602683817559663e-05, 283687000000, 
-0.05903747075822196, -0.005329771324547321, 0.00018183360944576328, 283692000000, 
-0.07783860651717801, 0.001950347501283358, -0.00020574758455197336, 283697000000, 
-0.05966442914289972, 0.004974787517211332, 2.7437055881009308e-05, 283702000000, 
-0.07360146804765408, 0.008926328125413666, 1.3072049163405478e-05, 283707000000, 
-0.06770904259339136, -0.0003764813346180725, -6.899887804249718e-05, 283712000000, 
-0.05658923174171689, -0.009147236424165189, 0.0002874151760628321, 283717000000, 
-0.04105912568628788, 0.01098145062515986, -6.653805126648423e-05, 283722000000, 
-0.059784611248808045, 0.02301697249420033, -0.00014689217501159932, 283727000000, 
-0.08324647560514162, 0.016267103630036577, 0.00011621969218822574, 283732000000, 
-0.056069834023942014, 0.0007542777628343479, 3.834791066359405e-05, 283737000000, 
-0.06848087726472604, -0.005176002399749851, 0.00028440226278012893, 283742000000, 
-0.06624564394909976, 0.008479563436130657, -0.00013705835570764377, 283747000000, 
-0.06332617881249576, -0.007548262800282728, 4.7067684392177145e-06, 283752000000, 
-0.06515360027882408, -0.0013617590951720054, -0.0001570017407192943, 283757000000, 
-0.06396587730931545, 0.013130881250776499, 0.0003646428123422437, 283762000000, 
-0.03621622824861795, 0.0010552126003495297, 0.00019929314840639282, 283768000000, 
-0.09196417089791595, -0.0030032689545992867, 1.4770646369480528e-05, 283773000000, 
-0.06740861179279593, 0.018905680312703538, 0.00023112048756445723, 283778000000, 
-0.05871163508426521, 0.002367586490779963, 0.00011904872188012159, 283783000000, 
-0.03697886904990661, -0.015484976451568955, 0.0002972172335221532, 283788000000, 
-0.06535610799338937, 0.006962599513479571, -0.0002766013308252087, 283793000000, 
-0.07142115687694865, 0.010235149017357984, -0.00019668326865183346, 283798000000, 
-0.05694463643611455, 0.01927184197227125, 0.0002849806923700405, 283805000000, 
-0.07551048959490259, -0.009378438001288753, 0.0002200272304799123, 283810000000, 
-0.05449601062569578, 0.000600598405959327, 5.5111146178664044e-05, 283815000000, 
-0.0343087921358403, 0.024205666410437164, 0.0001159414041366258, 283820000000, 
-0.04346672211189172, -0.017767000184072106, -4.4767729539391395e-05, 283825000000, 
-0.04471611853619084, 0.008196319293544004, -0.0005178439517904915, 283830000000, 
-0.05582091988041854, 0.020206426221818376, -1.1772563913499372e-05, 283835000000, 
-0.03029884353127393, -0.012626838208943735, -0.00012950668487178842, 283840000000, 
-0.09709155715558018, 0.016382973871705966, 0.00021068296582080098, 283845000000, 
-0.06616898588977918, 0.02470495577636368, 0.000188189713852027, 283850000000, 
-0.08493643487244897, 0.016881148063829992, 0.000125359135028631, 283855000000, 
-0.06759078609625992, 0.00558789087258855, 3.122385816590372e-05, 283860000000, 
-0.027108661365039616, -0.024405655393977203, 0.000231702862134035, 283866000000, 
-0.06122561550837782, -0.017876119169608507, -0.00029065598010774736, 283871000000, 
-0.05135545627077313, -0.012867959012634102, -0.0004439567275080433, 283876000000, 
-0.06226148511905183, -0.02657871863645857, -0.0001401894686286887, 283882000000, 
-0.061668650065160216, 0.011668604171750136, -8.088584925479997e-05, 283888000000, 
-0.07703784246836909, 0.011384614252559969, 0.00034808981426209134, 283893000000, 
-0.03732555481841439, 0.009107110727145398, -0.0001391606961966, 283898000000, 
-0.05418305411309498, 0.0030277467327219473, 0.0003078003324097949, 283903000000, 
-0.02829206443206719, -0.005602035573785029, -0.00019547333737319502, 283908000000, 
-0.07838976689269037, 0.00025795496019587357, -0.0001022641866717534, 283914000000, 
-0.08571522930133266, 0.04272956995818284, -2.7343008645588652e-05, 283918000000, 
-0.02225459678278153, -0.015888724169441225, -0.0003523596331859619, 283923000000, 
-0.06720257745628132, 0.019671026646433984, 0.00012202102615990805, 283928000000, 
-0.050366924524757224, -0.011578977787926516, 0.000168325718635079, 283933000000, 
-0.03896490095389832, -0.008058358413679335, 4.7881877706149064e-05, 283940000000, 
-0.06568695378000783, 0.013964092800717025, 0.00019294490490763636, 283945000000, 
-0.04953765445300635, 0.008520859911624072, 0.00021555933663258028, 283950000000, 
-0.048990829220666623, 0.014399439451361141, -0.00032107592863808753, 283955000000, 
-0.055784880081028, 0.0004637552293939094, 0.00018221113501576722, 283960000000, 
-0.04349440752119619, -0.001107776571261942, -2.674595570230046e-06, 283965000000, 
-0.038341178914611224, 0.003045611981708109, -7.955669188689853e-05, 283970000000, 
-0.047458537261226584, -0.019884163063629938, 0.0002817276899540317, 283975000000, 
-0.04530332797928712, 0.004607862094526485, 2.974672374656218e-05, 283980000000, 
-0.07330572431385085, 0.027597698717191754, 0.00022714000232061917, 283985000000, 
-0.03656824953647349, -0.016467901509629325, -0.00033216995177747, 283990000000, 
-0.06396671510614066, -0.005885754805625115, -0.0001081370170097732, 283995000000, 
-0.06721813632010469, -0.01204142467810914, 6.92591658724006e-05, 284001000000, 
-0.06065521682212765, -0.018933213675963005, 0.00013609916982631684, 284006000000, 
-0.03781491610899343, 0.0027889349828167107, -5.706352423938972e-05, 284011000000, 
-0.033660163783542515, 0.011126252298518605, 0.00012150163411404884, 284016000000, 
-0.04787451818636444, -0.004108980428322309, -0.00014904841553438743, 284022000000, 
-0.07105289673158527, 0.0008284229729415394, 0.00014946869459105545, 284027000000, 
-0.054248000889604416, 0.02326571154453593, 8.294554512951623e-05, 284033000000, 
-0.07421027466760725, -0.011138020837423821, -0.0004342283183959994, 284038000000, 
-0.024348342059752743, 0.04423185938969631, 9.026120156936417e-05, 284043000000, 
-0.06172913442872944, 0.005826988833778452, 0.00010041169740574429, 284049000000, 
-0.04404232833904985, -0.005016660166423197, 3.0655408421016933e-05, 284054000000, 
-0.07860938516919541, 0.034722842117488176, -0.00018424009091341898, 284059000000, 
-0.043271840229570875, -0.009075063193390649, 0.00018947385794142126, 284064000000, 
-0.05438680700594746, -0.007146468988756497, -2.0165242678439082e-05, 284069000000, 
-0.0507381437095271, -0.0074674621670578825, -5.145500930460951e-05, 284074000000, 
-0.028753553033683692, 0.011573687891388431, -2.846866363481705e-05, 284079000000, 
-0.06763605291103633, 0.007957354149389287, -0.0001084154948120187, 284084000000, 
-0.048160776570739576, -0.0018805607394900455, -0.0001331515329289494, 284089000000, 
-0.028579671494074792, -0.0020440763912742653, 1.1050341485006963e-05, 284094000000, 
-0.04198029745421734, 0.012871043394926349, 0.0002824400351714656, 284099000000, 
-0.029034136657755893, 0.007020295172142843, 5.886683789910804e-05, 284104000000, 
-0.025000417661547786, 0.0026819969398971613, 0.00022892496217243863, 284109000000, 
-0.050355745746073065, -0.0033375824112342302, 0.0003044780948899484, 284114000000, 
-0.07783400024836441, 0.01970263042593359, 0.000455894648839852, 284119000000, 
-0.06016056556447334, 0.012710547768976024, 1.7623525479578115e-05, 284124000000, 
-0.04851305944953541, -0.020825023263448487, 9.792809950474583e-05, 284129000000, 
-0.045872279548461625, 0.016597135130946822, -0.00017621219163215218, 284135000000, 
-0.056749779161320055, -0.00068085757883446, 0.0003118339055249166, 284140000000, 
-0.05072447353587212, -0.008947144895136863, 5.551226631095216e-05, 284145000000, 
-0.048114864071713614, -0.016997871366888295, -7.968084363668957e-05, 284150000000, 
-0.044277981971232616, 0.00630918433280625, 0.00015280835522001485, 284155000000, 
-0.04986047145890461, 0.014463419702241012, -8.101651182471348e-05, 284160000000, 
-0.05979820040861888, -0.009692330342957493, -4.919423397505118e-05, 284165000000, 
-0.028639352532777745, 0.006151350106668869, -0.0001036721180874191, 284170000000, 
-0.051390466734531515, 0.003317594569568067, 0.000336429069235136, 284175000000, 
-0.04137957064970875, -0.0031000116699151444, 0.00029608334403968687, 284180000000, 
-0.05141408298284034, 0.010921524534900823, -3.4534660798905827e-05, 284185000000, 
-0.047844046909605926, -0.005978141697736599, 0.0002400310893110951, 284190000000, 
-0.03289042153778947, 0.01187675087801403, 0.0001772263666425433, 284195000000, 
-0.06309543659765932, 0.018005393792855283, 9.807044160313449e-05, 284201000000, 
-0.056162914375671405, 0.03193320900140429, 0.00010515099863535863, 284206000000, 
-0.03937751518510654, -0.021308444996584967, -6.398387526234076e-06, 284212000000, 
-0.06773152588849808, 0.02135328135321706, -9.687107998278444e-05, 284217000000, 
-0.0571730498025304, 0.013742230668718838, 1.5122111735288816e-05, 284222000000, 
-0.029941658828207103, 0.004747760391807828, 0.00020336530257414044, 284227000000, 
-0.06522134921092074, 0.01223332843878772, -0.00011477839214789505, 284232000000, 
-0.028550505496626837, -0.0022521114850660795, -0.0001978965631612297, 284237000000, 
-0.04011479834471259, -0.01389580739571172, 0.00015867525855518415, 284242000000, 
-0.05829904106430328, 0.016248573484096213, -0.00013540132179445193, 284247000000, 
-0.055480512127159175, -0.03138415709360385, -3.192947443461126e-05, 284252000000, 
-0.03141648634117504, 0.0024267122587954054, -9.134270708200034e-05, 284258000000, 
-0.04886810047781523, 0.0003789678363911675, -0.00011270681119234833, 284263000000, 
-0.04109273926196544, 0.030070420398179896, 1.5667531108592545e-05, 284268000000, 
-0.051508221002769056, -0.034253620020459674, 0.00012067259137048131, 284275000000, 
-0.07114958479343085, -0.0018283634916217602, -0.00026106121598555023, 284280000000, 
-0.05924982793140116, -0.0052921834497944315, 6.347033636585065e-05, 284285000000, 
-0.05848544760746707, -0.01134632127873376, 0.0003110840700094355, 284290000000, 
-0.04256390230372872, 0.003863108564661664, 0.00022102282636171452, 284296000000, 
-0.06512668974066316, -0.008247881924246577, 7.892890560383185e-05, 284301000000, 
-0.05523126373916369, -0.010234509514120154, 0.00025889885969754723, 284306000000, 
-0.04642214500775532, -0.01956602702523664, 0.0003574707246054912, 284311000000, 
-0.03032388171082453, 0.03034009247568771, -6.529255829441027e-07, 284316000000, 
-0.034472219653940386, 0.0021212700378858786, -0.00020375433070305104, 284321000000, 
-0.08861341187442479, -0.008946204893130577, -3.0945479232555985e-05, 284326000000, 
-0.04131836514711045, 0.02535552083941857, -4.8704054614861285e-05, 284331000000, 
-0.045229129323246756, -0.001260829558294646, -0.0002769429139198563, 284336000000, 
-0.06408945699298756, -0.00538349965370442, 3.348786906947974e-05, 284341000000, 
-0.026416672658775127, 0.015818519236288495, 4.780060981965091e-05, 284346000000, 
-0.051525936681773396, 0.01171137423919634, 0.0002476526139754468, 284352000000, 
-0.0477100659001489, 0.010069524797030745, -0.0003798996715908003, 284357000000, 
-0.05101685642993532, -0.008272090602992136, -0.00028482603279171955, 284362000000, 
-0.028377470931246505, 0.03506851114813311, -5.015272533926672e-05, 284367000000, 
-0.02833310964717623, -0.03046803506732116, 1.3902984586305498e-05, 284372000000, 
-0.06453961489959505, 0.01633755883098951, -0.00017302475519380425, 284377000000, 
-0.04070766426981007, 0.0005748323454893039, 4.2392517763762484e-05, 284382000000, 
-0.0315026771757331, 0.023630765289870438, 0.00013668376732513504, 284387000000, 
-0.09952830964509388, 0.028553340190432958, 0.00022939514653861647, 284392000000, 
-0.046300742554761826, -0.015264556168851114, -9.220893722344383e-05, 284397000000, 
-0.06802972048924934, 0.03917205127690343, -2.5486524637681747e-05, 284402000000, 
-0.07082498747904448, -0.004787353016755254, 0.0001873000064017727, 284408000000, 
-0.0577536010372576, 0.00027318615257508464, -0.00015385487181947987, 284413000000, 
-0.07295143738029276, -0.018094203368193763, -0.00021074335375464735, 284418000000, 
-0.0361354158395728, 0.022389003009942253, 0.0001479729948835629, 284424000000, 
-0.021769180713582654, 0.017129608271017997, 5.862695246099721e-05, 284429000000, 
-0.04077223183625639, -0.029289567966076638, -0.0003450008523398976, 284434000000, 
-0.042798078115665245, -0.022256372098709534, 0.00015885541921731552, 284439000000, 
-0.03233512149594553, -0.005731324221526819, 0.00019757810519127766, 284444000000, 
-0.10070193417237308, -0.0009805769919955182, 9.539237583179437e-05, 284449000000, 
-0.07329438147159588, 0.033234255250903705, 0.0004681423531339514, 284454000000, 
-0.05002422856215933, 0.005870334538573623, 0.00019709899956952477, 284459000000, 
-0.0845671258747575, 0.008497612351197833, -3.690071597616321e-05, 284464000000, 
-0.08556035241659549, 0.009830882444589087, 0.00016354076328009036, 284469000000, 
-0.019778585724549685, 0.005854122124876854, 8.061786090144332e-06, 284474000000, 
-0.07827583543091512, -0.025029965463947135, 0.00014335596155547832, 284479000000, 
-0.08416351611178005, 0.02120577509056609, 4.2302694764930865e-06, 284484000000, 
-0.019179399706405323, -0.020886322933654902, -0.0005332084641939059, 284489000000, 
-0.04866002594094475, -0.0018188365296604918, -0.0002197367184035475, 284494000000, 
-0.07266288447437365, -0.026415492903626426, 5.676368571051698e-07, 284499000000, 
-0.05836125364862146, 0.0006939234887691415, 0.00041749842897895054, 284504000000, 
-0.043905584366369196, -0.01227127248046112, -0.00019309060169246425, 284509000000, 
-0.07144691252858061, 0.01043343885600384, -0.00011615786575761225, 284514000000, 
-0.051776613913916254, -0.026420174833733896, 0.00017312728920934622, 284519000000, 
-0.05391862339166072, -0.0023356853384427314, 4.3213971731045066e-06, 284525000000, 
-0.048937605051301895, 0.026970965964290865, 0.00013574809157205386, 284530000000, 
-0.05502882293144721, 0.00881489497192808, 0.00032103648045670607, 284535000000, 
-0.07076358135435218, -0.025346355566996246, 0.0002782926478894485, 284540000000, 
-0.0450757160280177, -0.03596775601138844, -0.00016739566480062693, 284545000000, 
-0.07892561537447838, 0.014812129188091522, -5.767221827835864e-05, 284550000000, 
-0.060868809792923015, -0.0230159838384402, 0.00024273420146993151, 284555000000, 
-0.049983435895171506, 0.005373006233189363, -2.0562250810565337e-05, 284560000000, 
-0.04822123963450253, -0.009700748835689759, 5.837400893247877e-05, 284565000000, 
-0.013651967624683937, -0.005801321328418637, 8.89150791160556e-05, 284570000000, 
-0.05543320697085724, -0.009076174420300077, 0.00029958755626024693, 284575000000, 
-0.04507012604288618, 0.018884666794243252, 1.962295121581555e-05, 284580000000, 
-0.01597377117705205, 0.006069295150050761, 3.6922420131360507e-07, 284586000000, 
-0.029318171796116697, -0.007885864632410923, 7.111167874954887e-05, 284591000000, 
-0.06032321259813554, -0.007334404513299517, 2.517790577455846e-05, 284596000000, 
-0.04795541358656161, -0.0118913691472544, -2.4118434815669593e-05, 284601000000, 
-0.06190294074734265, 0.019973271854042962, -2.3189821328312088e-05, 284606000000, 
-0.06088860400097712, 0.023930343014431206, 0.0001875889921291169, 284611000000, 
-0.08040082441303781, 0.018487143486716495, 0.0001752376739888388, 284616000000, 
-0.06116669916435788, -0.01508836146599865, 0.0001315676925348685, 284621000000, 
-0.050571824836055865, 0.019822539327471744, 0.00010019503318134497, 284626000000, 
-0.057718462164114845, 0.008117896416858124, -8.254787305728468e-05, 284631000000, 
-0.04421962893723661, 0.032898127887763584, 2.8705535256282128e-05, 284636000000, 
-0.056322913367860154, 0.00035633556306252645, 4.8860333686819546e-05, 284641000000, 
-0.05109885553159703, 0.012271174766806973, -4.5055608172538314e-07, 284646000000, 
-0.02333016016722876, -0.0051590647235273505, 5.4932611211600194e-05, 284651000000, 
-0.09116995898910124, 0.005993670189794718, -0.000195890224903259, 284657000000, 
-0.05266598079719318, 0.0006048394215762282, -7.872322284454478e-05, 284662000000, 
-0.05061242728243663, 0.018604407586386824, -0.0001424814121176819, 284667000000, 
-0.06440538702312308, -0.001204418631156021, 3.722046736816797e-05, 284672000000, 
-0.08125345495224218, 0.02911575193282753, 0.00013506488228113376, 284677000000, 
-0.07483132099429969, -0.027798904310284187, -0.00020009197309133644, 284682000000, 
-0.08042727852346086, 0.016374478343501735, -1.867111963703182e-05, 284687000000, 
-0.07061507382159005, 0.017196043213668296, 7.0555744961277e-06, 284693000000, 
-0.08054066696209797, -0.04045738314433062, 0.0002992169091220581, 284698000000, 
-0.05637038890419393, 0.032814321133757984, -0.00010267554816588465, 284705000000, 
-0.0478740392283417, -0.0008108939098964085, 8.071316914705854e-05, 284710000000, 
-0.05205055560143448, -0.002334629380105878, 2.9912703220046682e-05, 284715000000, 
-0.06452171451150168, 0.006318842731412817, -2.4684338120983827e-05, 284720000000, 
-0.05451258568778599, 0.013529741069550166, 0.0002886681882784876, 284725000000, 
-0.07199938376164866, -0.0379455087142431, 7.369377247101233e-05, 284730000000, 
-0.060239933770816156, 0.01714925111453119, 0.00026459572446781474, 284735000000, 
-0.0762211031212156, 0.00961364027184934, 0.00016064415703090566, 284740000000, 
-0.055134992851854546, 0.021974314515085313, -0.0003091561592180065, 284747000000, 
-0.07225489676131544, 0.0038144431268814843, 0.00020619402445088423, 284752000000, 
-0.05801809650266816, -0.0007136857000714556, 0.0002922736470265552, 284757000000, 
-0.0593896707108471, -0.019693776001097115, 5.340242282872936e-05, 284762000000, 
-0.061680212885475, 0.016688302628896957, -0.00021975214260638103, 284767000000, 
-0.039414286029900915, 0.00020347818942105587, 7.969249515695818e-05, 284772000000, 
-0.06228108358585505, -0.042019118197857114, 9.023964357797893e-05, 284777000000, 
-0.06438110245215838, 0.018419247741914193, -0.00021095919611224435, 284782000000, 
-0.037374352935018784, 0.003552986806198401, 4.1547950572045475e-05, 284788000000, 
-0.06345760295092362, -0.008935003739863721, 0.000248954267467821, 284793000000, 
-0.05673694119265979, 0.02150316726843746, 0.00013121097728681667, 284798000000, 
-0.06932638097450278, 0.008327337878006994, -3.1384791624226696e-06, 284803000000, 
-0.07368311235468178, 0.00020870182373321325, 0.00015490899184646495, 284808000000, 
-0.06593224988665873, 0.01593143050728782, 4.888464554902675e-05, 284813000000, 
-0.024469499009698314, 0.0031500332228719848, 5.8404359718661086e-05, 284818000000, 
-0.05724994226890124, -0.014475360304362968, -0.00022679379061204044, 284823000000, 
-0.023170333494167777, -0.01084429332914209, -6.462564073813827e-05, 284828000000, 
-0.0646353568356456, -0.005043013868443356, -8.321098813430314e-05, 284834000000, 
-0.07155657111601527, -0.0015666914034111149, -7.26055958225132e-06, 284839000000, 
-0.09183426774741903, 0.013031056928750746, -7.93244270947172e-05, 284844000000, 
-0.044437469750123616, -0.03502662962299486, 0.00011063939706289398, 284849000000, 
-0.07236227275278131, 0.008585747770635473, -0.0002875346080426287, 284855000000, 
-0.0512385437012202, -0.010685197251230965, 0.00035132582478593236, 284861000000, 
-0.055885908083699545, 0.0018674854545524951, 6.971805420167394e-05, 284866000000, 
-0.07133431881110633, -0.008616004582838862, -0.0002873849648593754, 284871000000, 
-0.051669499598295573, -0.01439015037769392, -0.00018510865062799402, 284877000000, 
-0.03852465933670284, 0.023602865464748102, 6.794250615515736e-05, 284882000000, 
-0.03785980756502538, 0.007230113029652337, 0.00011538747341489715, 284887000000, 
-0.05390919584508485, 0.01266506744895539, 2.373630156847588e-05, 284892000000, 
-0.07768410893804717, 0.017346675517912795, 0.00010563429657911451, 284897000000, 
-0.05579939578988816, -0.02435901593287442, 8.38899258641103e-05, 284902000000, 
-0.05565429976715501, -0.01247910113097725, 0.00012506331448705046, 284907000000, 
-0.033668030532666836, 0.013682526380375856, -6.113698325810461e-05, 284912000000, 
-0.05797014286625384, -0.0170432554149045, -0.00010173090656188157, 284917000000, 
-0.06100195279842803, -0.01711628240826331, -0.00030725845507828005, 284923000000, 
-0.04748841897527637, -0.014217689223895033, 0.00034041207081981893, 284928000000, 
-0.05877279642611137, -0.005124886224905397, -4.8798394412179216e-05, 284933000000, 
-0.060725463113063816, -0.03986937327661374, 0.00034968355652801285, 284939000000, 
-0.06720808077794024, -0.01709842403727776, -0.00010483544039557844, 284944000000, 
-0.07049354948657888, 0.021345409848971722, 0.00010795452234406654, 284949000000, 
-0.05960403610135897, 0.019223892511753892, -0.00029581479592496947, 284954000000, 
-0.057668374221507994, 0.006056007580349923, 9.060122243274943e-05, 284959000000, 
-0.06013756629105102, -0.003100220164116007, -0.00015461841391503476, 284964000000, 
-0.05978065953741071, -0.016385809157322583, -0.00012577432123544535, 284969000000, 
-0.06260274174834898, 0.010337305196705615, 0.00015130369894939702, 284974000000, 
-0.05051937475444455, 0.04810619482544517, 9.383068686497335e-06, 284979000000, 
-0.028979370577840394, 0.010174393336504646, 0.0003169725560164943, 284984000000, 
-0.04543031115299911, 0.0053632743372628916, 0.00029764100301037517, 284989000000, 
-0.08506869827296201, -0.027092423422734834, -0.00028234285025252446, 284994000000, 
-0.04916051512518618, -0.015976428883089828, 0.000154023105265457, 284999000000, 
-0.06465468496043456, 0.0008212522758629, 2.3938715298481552e-05, 285004000000, 
-0.08618917591971592, 0.012611003408890653, -5.5751628667820284e-05, 285009000000, 
-0.05170194767188773, 0.012032965979005869, -0.00010131503173158696, 285014000000, 
-0.03745379408425526, 0.03116595568665189, 3.0599817154939945e-06, 285020000000, 
0.0006422294107594068, 0.003792265570251795, -4.152272115107234e-05, 285026000000, 
-0.066870018117571, -0.005323360459186249, -0.00018816420428853379, 285031000000, 
-0.06230380108876607, -0.03239913792061022, -0.00013176165981114714, 285036000000, 
-0.030611049482006186, 0.0027336762790614666, -3.3020894849512494e-07, 285041000000, 
-0.06440166581651598, 0.0034712028301460813, 0.00030634534197471924, 285046000000, 
-0.05489946772414506, -0.004777766974610569, 7.939197299771349e-05, 285051000000, 
-0.04831668556329585, 0.01976358570359141, -0.0001613813279369239, 285058000000, 
-0.04683324668689745, 0.003827456624139657, -3.4996039090735235e-05, 285063000000, 
-0.056272625061034705, 0.03578449453686913, -1.474890526216284e-05, 285068000000, 
-0.021775170722377196, 0.001839486199590457, 0.00014818933786050272, 285073000000, 
-0.04630310779268469, -0.022926016593130337, 1.451810095840934e-05, 285078000000, 
-0.03315022359124481, 0.006357161210931815, 0.00014083051647829583, 285083000000, 
-0.06185402959486984, -0.040114728017103016, -0.00020801706858372468, 285088000000, 
-0.0518147671614373, 0.004330529125474759, -0.00013728451404901212, 285093000000, 
-0.07156365388085582, 0.0002943211326974148, -7.937092517486999e-05, 285098000000, 
-0.05477971898401463, 0.02714937985413716, -5.381707230881956e-05, 285103000000, 
-0.059425740846043365, -0.0009128411374426935, 8.284389906607183e-05, 285108000000, 
-0.0675907176030621, -0.02250992267223935, -0.00012657394509475655, 285113000000, 
-0.07919887583544764, 0.028727266214326502, 0.00031250693491661347, 285118000000, 
-0.057181080588398894, -0.01764903241876962, 2.045046917360353e-05, 285124000000, 
-0.044139570772047144, -0.012668779909105686, 0.0002937061276569773, 285129000000, 
-0.04767085316043894, -0.0210248463926073, 0.0002386829226566973, 285134000000, 
-0.04674726377938068, -0.029331460600497763, -6.0683143153888044e-05, 285139000000, 
-0.06968656350765437, -0.017093813031816743, -0.00014782583435225767, 285144000000, 
-0.037343939509190544, -0.01022684447950287, 0.00012316436936380583, 285149000000, 
-0.050267528942539635, -0.005774227711543253, -0.00017717953661878125, 285154000000, 
-0.029606270598810457, -0.015222028082908474, -0.00021970330424135362, 285159000000, 
-0.06341555618214395, 0.012211600955547255, 0.00019398226975702394, 285164000000, 
-0.07530612409388728, 0.006841979071400566, 0.00011974106304025022, 285169000000, 
-0.05489513047340514, -0.0013579876506742091, 0.0001591454068814198, 285174000000, 
-0.061412928123236975, -0.012035048537108819, -1.388655194800373e-05, 285179000000, 
-0.06912145113591418, 0.012345341936025767, 0.00016119258804633108, 285184000000, 
-0.07654910843895034, 0.0037611454171705794, -0.00014131441219410098, 285189000000, 
-0.06061162421935546, 0.011004665355887, 1.4750908314834125e-05, 285194000000, 
-0.05614076237486952, -0.017735469873047898, -7.382121476898422e-05, 285199000000, 
-0.06753129840134335, 0.013043536297788084, 0.00016826698257611593, 285204000000, 
-0.04301083033509167, -0.0004195569081550781, 0.00014079022812724825, 285209000000, 
-0.06187098706656055, -0.012793068485223396, 4.163345712206488e-05, 285214000000, 
-0.036531038319304904, -0.022424384497323983, -5.854158657002617e-05, 285222000000, 
-0.06496684865293494, 0.0009101533117538083, 0.00014973887126525285, 285227000000, 
-0.040054555612345645, -0.023806296412409576, 0.00014404186095784893, 285233000000, 
-0.03887785762514734, -0.01973923619515656, 8.166358642827912e-06, 285238000000, 
-0.06551290151238968, 0.010828535722780468, 0.0003090211007192379, 285244000000, 
-0.05702963140872312, 0.0012652593131069602, 0.0001481535005185608, 285249000000, 
-0.02629121506373821, 0.027613971504639942, 1.6093077596878762e-05, 285257000000, 
-0.06344040640781128, 0.03239994596699417, 2.950805575773886e-05, 285262000000, 
-0.055594915441475726, 0.02943203968550535, 8.287282808069104e-07, 285267000000, 
-0.0641083352080169, 0.016420831977484826, 0.0003261227315079966, 285273000000, 
-0.07427743770952915, -0.0005974777943593197, 8.3734430522801e-05, 285278000000, 
-0.06283609657477493, -0.01837649145826885, -0.0001789856344793846, 285283000000, 
-0.04084898509660907, 0.015924618867745148, -0.0002001129502318897, 285289000000, 
-0.065008985792979, -0.005836079020365338, 0.00015881727725967394, 285294000000, 
-0.06212053032456477, -0.012959136491653842, -3.592423444151884e-05, 285300000000, 
-0.06306197629083034, -0.003422819048225112, 0.0003615377713696439, 285307000000, 
-0.0639690556235969, 0.0013859965379938144, -8.516922949602117e-06, 285312000000, 
-0.0630031979706753, -0.006375884197353741, 2.0227676960494044e-05, 285317000000, 
-0.0650703616558002, 0.017043355237769932, 8.023637112654925e-06, 285322000000, 
-0.041620856289762004, -0.0015329671866206008, 0.00010591573268248485, 285327000000, 
-0.058351328693957476, 0.0016319437455699537, 1.5642065219554533e-05, 285332000000, 
-0.032156270006206626, 0.006048182104190165, 5.443099296037292e-05, 285337000000, 
-0.058054240136770664, 0.021483024815052043, -0.00026830081316557997, 285342000000, 
-0.051113814333915326, -0.028004210778836497, 4.79067140942343e-05, 285347000000, 
-0.033828988633549745, 0.023670810169221963, 0.00019617980229968835, 285352000000, 
