acc_x, acc_y, angular_z, stamp, 
-0.072617425760285, -0.004389793580298255, 9.46730726009045e-05, 50530000000, 
-0.060833455575468376, -0.0032245276575616206, 0.00023141463572144284, 50535000000, 
-0.07379625971894141, -0.021734734907330334, -7.893858841009429e-05, 50540000000, 
-0.04861718444914709, 0.001533202154515555, -0.00012445501810054934, 50545000000, 
-0.074591598279706, 0.025428270967112015, 6.345583344010601e-05, 50550000000, 
-0.07003347496837059, -0.011659641363297757, -0.00033102299346759686, 50555000000, 
-0.03868715818432852, 0.012710687897910463, 0.0001864777993828936, 50560000000, 
-0.062875622073984, -0.005015503362508783, 0.00029525074313768826, 50565000000, 
-0.07001534469179128, -0.014064449427496734, -0.00045281459624505437, 50570000000, 
-0.07067113919793319, -0.04704093171942108, -2.33725940336711e-05, 50575000000, 
-0.05318594330596397, 0.01322772691996963, 0.0003834012138701505, 50580000000, 
-0.06769414281263508, -0.010881114550416304, -0.00014356615751197116, 50585000000, 
-0.06716985311485278, 0.01274114229863207, -0.00013335518847168378, 50594000000, 
-0.0454727295744241, 0.011285767262597016, 0.00014897952237988833, 50599000000, 
-0.06864561871085452, 0.009084632658386542, 0.00010750730361904745, 50605000000, 
-0.02510449434551881, 0.014541539436421695, -2.8089447433364222e-05, 50610000000, 
-0.04303382931378584, -0.013278906310528775, -0.00023152560404182681, 50615000000, 
-0.01889491824635979, -0.030123191015500622, -0.00015140728856800626, 50620000000, 
-0.05116581348528193, 0.021943388416468586, 3.680678638349414e-05, 50625000000, 
-0.07000981541196202, 0.004149950483742383, 1.6932938056811827e-05, 50631000000, 
-0.05609599003182964, 0.022868801350790172, -0.00040434822132417883, 50636000000, 
-0.06345675550246016, 0.016469400051290595, -6.038254695976697e-05, 50641000000, 
-0.06339085924961727, -0.02014991577943447, -0.0001855478294449838, 50646000000, 
-0.04304111420738577, 0.0275203887132855, -3.1649000417051637e-07, 50651000000, 
-0.06548336907228541, -0.012595156979059594, -0.00010716412809768515, 50656000000, 
-0.07040978229540967, 0.005208727874860521, 2.245727930846514e-05, 50661000000, 
-0.0809465034579098, 0.0025782131141480263, -7.60038965786631e-05, 50666000000, 
-0.04850887666396379, 0.02672029463580124, -0.0004484468381139564, 50671000000, 
-0.061030248425901414, -0.0034979208204567423, -9.025206974339532e-05, 50676000000, 
-0.0525086763984156, 0.004071219363829117, -7.357095048866084e-05, 50681000000, 
-0.0496767562067138, 0.02208827281281845, 0.0001013627304542337, 50686000000, 
-0.07237092387910872, -0.015550054385361474, -0.00027471276292498884, 50691000000, 
-0.04019930851878216, -0.0027339035351619844, -0.00029449292873313254, 50696000000, 
-0.04432449182506568, -0.009785599608992657, -1.1324670213138475e-05, 50701000000, 
-0.027704603990721166, 0.021096256124512627, 0.00015250696424304468, 50706000000, 
-0.05171784545107928, -0.00902755498823145, 0.00033973808994884716, 50712000000, 
-0.057654010962975094, 0.0004771052286149972, -0.00029820732949196956, 50717000000, 
-0.055074399239034795, 0.026704452847310173, -0.00057702797967333, 50722000000, 
-0.031195605220820117, 0.014374872381192533, 0.0004701750152242698, 50727000000, 
-0.06087223573831422, -0.00019867689503904186, 0.00023215805398231086, 50732000000, 
-0.07800122177911434, 0.0274867504476198, 0.00011689355555238522, 50737000000, 
-0.04818216480452323, 0.00837719917779449, 3.821095036367048e-06, 50742000000, 
-0.07386622126793829, 0.029181157660310136, -0.00022117337939510205, 50747000000, 
-0.02084535861588531, 0.01588138734016077, 0.00029205883592761043, 50752000000, 
-0.056184417273771374, 0.01324188686200849, 6.618032255074996e-06, 50757000000, 
3.865712592615536, -0.0009866584580017887, -1.518119237479066e-05, 50764000000, 
1.3188485214481498, -0.007077449616021828, -0.00029795833418409974, 50769000000, 
-0.0023090590069301253, 0.009519093259480336, 0.0001697748160283279, 50774000000, 
-0.17528856837706164, 0.00375051682180167, 0.00017874466987716957, 50780000000, 
0.01878511685979177, -0.028883992018538175, -3.1342392653166945e-05, 50785000000, 
-0.1411539077234501, 0.021375435888417744, 0.00020954297624067907, 50790000000, 
-0.07090371154962309, 0.011452297859989854, 0.00025088365364096295, 50795000000, 
5.7835913096120235, 0.015036547640972623, 0.00020276167001521825, 50801000000, 
-0.11229636263901785, 7.377133796252204e-05, -0.00017345855957724265, 50806000000, 
-0.15412693491033747, -0.005855553422409903, 0.0003281558607325252, 50811000000, 
-0.022538176266807798, -0.00682929625611561, 8.624074875869575e-05, 50816000000, 
-0.051497596046050184, 0.0011534705543348109, 0.00015852773111374877, 50821000000, 
-0.063141336511994, -0.010865426701681447, -0.00016875002305886583, 50826000000, 
0.0037592103908914327, -0.006925188576122489, 0.00019873496821371333, 50831000000, 
6.811849763969317, -0.011909274180380298, 7.935201597652687e-05, 50836000000, 
-0.16164591149344593, 0.02860476808894438, -0.00014061581797147324, 50841000000, 
-0.07606224071096405, 0.027565823983114805, -0.00014950070782257394, 50846000000, 
-0.0832049569631358, -0.014639767105508603, -0.0001333665348441293, 50851000000, 
-0.06272554623962869, 0.0009103338355434644, 3.853724319559621e-05, 50856000000, 
-0.04926463196669613, -0.019809340482070857, -0.00021548572483803293, 50861000000, 
4.812107928763279, 0.023917691806633314, 0.0010064197442732773, 50866000000, 
1.3393946508896581, 0.010158884799963968, 0.005786337272076845, 50871000000, 
-0.14476628242419784, 0.00033059871425231754, 0.016570169403220404, 50876000000, 
-0.07838644783392942, 0.004573734758499422, 0.028092804752172792, 50881000000, 
-0.07499904997249252, 0.017205954302352874, 0.04080111444390344, 50886000000, 
-0.0834386142450269, 0.00286588033609193, 0.053918860148508684, 50891000000, 
-0.05062105325612267, 0.021334382890349377, 0.0660630299690952, 50896000000, 
2.8321162955061285, 0.02989623595093865, 0.08957738426525845, 50902000000, 
-0.14093470022862545, 0.061704637891932576, 0.11691363368712065, 50907000000, 
-0.09475073882208568, 0.07147987349184108, 0.16741954530989508, 50912000000, 
-0.08640050078659064, 0.01787555519906095, 0.21280027693859693, 50917000000, 
-0.05884442742340533, 0.06023639977118724, 0.2587412521819375, 50922000000, 
-0.08996327539343002, 0.03966281725652829, 0.3019166943827283, 50927000000, 
-0.03990035559016278, 0.041249902674123554, 0.3402695290117783, 50932000000, 
0.4195362478078064, 0.04382187890305535, 0.3722607326945434, 50937000000, 
-0.04173552488704982, 0.05787116154629894, 0.39731928432284536, 50942000000, 
-0.036630836247275714, 0.04431010938495225, 0.4143194945812736, 50947000000, 
-0.04595159321705058, 0.04508634755170496, 0.42228083442899567, 50953000000, 
-0.05970494000624654, 0.05227112534375948, 0.41990018532586776, 50958000000, 
-0.043440172196688116, 0.03241854330658078, 0.41060143327505466, 50963000000, 
-0.023954317292325132, 0.07469704347355637, 0.397848360862736, 50968000000, 
-0.04830052571578773, 0.10386454868751475, 0.3736007179625323, 50973000000, 
-0.03641134047647798, -0.021009175245841213, 0.34977642852165974, 50978000000, 
-0.022280191236949493, 0.03990500008934754, 0.32454346871215717, 50983000000, 
-0.0407460764848039, 0.014103208311673804, 0.29984968532906675, 50988000000, 
-0.04632682311099334, 0.020447795050242967, 0.27773866061441477, 50993000000, 
-0.012503868359363894, 0.009302902798492375, 0.25860988174035404, 50998000000, 
-0.036862408280105875, 0.017488913735506272, 0.24388692477045448, 51003000000, 
-0.045841576562209156, 0.01995305037662929, 0.2339403882212758, 51008000000, 
-0.026482245247040927, 0.046434416389976536, 0.2292875245110954, 51013000000, 
-0.00994189509451061, 0.036625904462637575, 0.22929235285133714, 51018000000, 
-0.08616063626212528, 0.04947181248869898, 0.23370866902679824, 51023000000, 
-0.05645119790488879, 0.050601330750388404, 0.24184890636118478, 51028000000, 
-0.04087738391845941, 0.0346398321660505, 0.2534481775191955, 51033000000, 
-0.049676128648323374, 0.044317456958336165, 0.26710192233371466, 51038000000, 
-0.041609048022490804, 0.05684091629564714, 0.2817535515507164, 51043000000, 
-0.05777021995517975, 0.03284652407996108, 0.29583678127983853, 51048000000, 
-0.06967778734300006, 0.032843444670025854, 0.30943093452447124, 51053000000, 
-0.016766949506816755, 0.06387193734370405, 0.32049033195810567, 51058000000, 
-0.04797649515239721, 0.04082450686967034, 0.3303834882112583, 51063000000, 
-0.06943278901673977, 0.05252421772988782, 0.33698588188509154, 51068000000, 
-0.01810436710348889, 0.03178789310504185, 0.3412305064841258, 51073000000, 
-0.03409607783694853, 0.037013895754786905, 0.3420230612482625, 51078000000, 
-0.031250383816377215, 0.0709821727323596, 0.3394083908829578, 51083000000, 
-0.04994791538372403, 0.027500768243816413, 0.3348954859659559, 51088000000, 
-0.018383722036224983, 0.05212619740845525, 0.3288136611579687, 51093000000, 
-0.02908947924993953, 0.05684650298300391, 0.32137415240607997, 51098000000, 
-0.021664767721700787, 0.04100234218624997, 0.31327418181752203, 51103000000, 
-0.026894773354035034, 0.05739992365494022, 0.3048544173842805, 51108000000, 
-0.05550480323294443, 0.05459926502456071, 0.29684032168226465, 51113000000, 
-0.0481863540369149, 0.03229627679914125, 0.2897953788212213, 51118000000, 
-0.022380628509894418, 0.00787420838577987, 0.2839429720109248, 51123000000, 
-0.01994371022178869, 0.01708821517314711, 0.2788140732711997, 51128000000, 
-0.037897029531328216, 0.03996143815212099, 0.277485510946461, 51133000000, 
-0.05215368554267035, 0.03933377648105966, 0.2760666131618043, 51138000000, 
-0.02820183615773673, 0.01779341052570807, 0.27646060677004397, 51143000000, 
-0.029821056379468906, 0.051473616372283884, 0.27849916067767644, 51148000000, 
-0.04401322454587746, 0.0587160392253229, 0.2818936575930401, 51153000000, 
-0.051131157596404846, 0.03848445930565429, 0.28615007232312334, 51158000000, 
-0.01909288860182652, 0.029890896621851366, 0.29071930618784725, 51163000000, 
-0.06558394559961288, 0.020441023828325085, 0.295572021006422, 51168000000, 
-0.04827489572144589, 0.037610230309662145, 0.3009127161057424, 51173000000, 
-0.03345512137140057, 0.04968777694903195, 0.3045700216949814, 51178000000, 
-0.04830493795895938, 0.04576573028741459, 0.308462874612666, 51183000000, 
-0.041841582428389895, 0.01909934773909299, 0.3114152352730457, 51188000000, 
-0.04224543499982343, 0.04928910895033543, 0.31315924324742767, 51193000000, 
-0.01877543819791087, 0.08123759584919094, 0.31395750542393447, 51198000000, 
-0.04011840958813107, 0.05944464823872677, 0.3138736232706103, 51203000000, 
-0.02609496849812151, 0.05162692882792848, 0.31270094786352054, 51208000000, 
-0.017311413720150125, 0.043670143780317396, 0.3114153747166986, 51213000000, 
-0.047408017497928605, 0.04201290161166946, 0.30874519262447797, 51218000000, 
-0.022702731313892135, 0.04334812060290776, 0.306198924630184, 51223000000, 
-0.03823923148875849, 0.038720481633166826, 0.3032950446820025, 51228000000, 
-0.015208066769977019, 0.042540549891592706, 0.3006176550052112, 51233000000, 
-0.051761835343150486, 0.03289865546461173, 0.2978900531622755, 51238000000, 
-0.03587922697309134, 0.027646183798150113, 0.2955358410469903, 51243000000, 
-0.030188806503626646, 0.05750091484285373, 0.2943832039851012, 51248000000, 
-0.051494725648868304, 0.042280931427666306, 0.2928209239315741, 51253000000, 
-0.008095469125579655, 0.06421874454528229, 0.2919985633946438, 51258000000, 
-0.037863018521145875, 0.062276517389689354, 0.2919707470641722, 51263000000, 
-0.04720813641822443, 0.0664520801529512, 0.29241740366430186, 51268000000, 
-0.031960546404646906, 0.052383094114812526, 0.2936590007647014, 51273000000, 
-0.05238249900911303, 0.024859624867492706, 0.2950387002375825, 51279000000, 
-0.05753187641130032, 0.026681125093750365, 0.2962685786090569, 51284000000, 
-0.06884648402137863, 0.05991906428642644, 0.29756969259610977, 51289000000, 
-0.048730007848957535, 0.046562121495820855, 0.2995261750324366, 51294000000, 
-0.06653629467740624, 0.03478328493352154, 0.30132112722998, 51299000000, 
-0.03837794007443747, 0.058691234421354016, 0.30270487903672133, 51304000000, 
-0.06316672856314577, 0.04697911288559571, 0.30357043418268537, 51309000000, 
-0.023442170538944436, 0.05117559758314253, 0.3038654024185966, 51314000000, 
-0.06848107625277236, 0.04279718251758162, 0.3045902986290458, 51319000000, 
-0.04374799899807367, 0.0449814534432398, 0.3050090160778985, 51324000000, 
-0.04362926227372622, 0.06836964505506474, 0.30453239821755473, 51329000000, 
-0.07204899957887365, 0.03804132254173397, 0.3039637477275936, 51334000000, 
-0.023007750466487183, 0.043337233876254544, 0.30342524944655486, 51339000000, 
-0.04409549274708216, 0.04837276481945667, 0.3024354424370792, 51344000000, 
-0.025928396618494012, 0.07673160834500584, 0.30189758922527143, 51349000000, 
-0.03807901389502605, 0.018831038075722697, 0.30045321271626785, 51354000000, 
-0.04347825679080405, 0.051101017886869264, 0.2999265907126852, 51359000000, 
-0.05033345136680632, 0.03316816827817447, 0.29903034518327054, 51364000000, 
-0.04246223106107816, 0.030986018057702208, 0.2982034782301364, 51369000000, 
-0.012357996180595993, 0.02505691086705229, 0.2973374561234823, 51374000000, 
-0.03025075881337183, 0.06719817508492298, 0.2974889633586245, 51379000000, 
-0.026480969753239044, 0.03202454573068256, 0.2968537601130807, 51384000000, 
-0.003562918689506457, 0.06719455306587128, 0.2972748631437246, 51389000000, 
-0.0793898447561626, 0.042048912752757156, 0.29759978529180914, 51394000000, 
-0.07260238875311092, 0.03471007250199834, 0.2981271685338651, 51399000000, 
-0.04003899430992994, 0.04692062878669064, 0.29840088682603283, 51404000000, 
-0.015114826369350257, 0.0369300404561707, 0.2990929159055815, 51409000000, 
-0.060058169997715266, 0.030256070877941042, 0.29926592719444556, 51414000000, 
-0.03964182602383669, 0.031493749201117506, 0.3000195033987104, 51419000000, 
-0.004555137627430851, 0.06609041360697007, 0.30046247708647805, 51424000000, 
-0.02650350076869353, 0.04899369351978154, 0.3009971310008485, 51429000000, 
-0.061807318435640746, 0.06611885031805276, 0.301317442461509, 51434000000, 
-0.07382591697856575, 0.05947743807179979, 0.3015297861454363, 51439000000, 
-0.040415465705965894, 0.06478149137741294, 0.30124839134819925, 51444000000, 
-0.074983419569945, 0.04228588009363589, 0.30177909809794456, 51449000000, 
-0.0667026644915927, 0.03302256871266514, 0.30137682196878707, 51454000000, 
-0.045762808315011186, 0.08284985122784268, 0.30114884194348623, 51459000000, 
-0.04621974166620188, 0.028874640504133825, 0.30064389147009996, 51464000000, 
-0.06456252905352577, 0.05831619048983804, 0.30015503632047674, 51469000000, 
-0.07024067807219014, 0.025121255670578182, 0.29993421038605744, 51480000000, 
-0.07128975895737923, 0.05367785500465, 0.2999028947462597, 51485000000, 
-0.038458350039873586, 0.024282998941863573, 0.29941749505680415, 51490000000, 
-0.05401260305572692, 0.08021768042717231, 0.2993716720140227, 51496000000, 
0.0316519280578558, 0.08346400762784427, 0.2989891661475867, 51501000000, 
-0.11214116646893052, 0.0087203944148925, 0.29909314916077956, 51507000000, 
-0.01942736018134116, 0.05592035094426302, 0.29897261507623657, 51515000000, 
-0.10772437011399573, 0.003298448505431706, 0.298944477146724, 51522000000, 
0.07296121043009178, 0.11025403749967924, 0.2990088638500037, 51527000000, 
-0.17629422011135568, -0.0004086737532906261, 0.29998893593163434, 51532000000, 
-0.06431792752666603, 0.05668124267479838, 0.29993131983561516, 51537000000, 
0.04574575032960079, 0.10984221785309388, 0.2999980219567168, 51542000000, 
-0.1575436264259968, 0.009822309053393222, 0.3000449770099909, 51547000000, 
0.08223851392050055, 0.06771991699765736, 0.30017195228872123, 51552000000, 
-0.031837887020623325, 0.037127161515652395, 0.3003401320515759, 51557000000, 
-0.17261390490011758, -0.021712446728900884, 0.30004582306871963, 51562000000, 
0.08437224214337849, 0.08385724496609909, 0.3004883260480982, 51567000000, 
-0.07933087053301029, 0.0675119752033333, 0.30038506338084586, 51573000000, 
-0.14753654461384133, 0.0012126105086161742, 0.30021537009908633, 51578000000, 
0.09852369334346678, 0.1415521416832843, 0.30023220826414054, 51584000000, 
-0.08386584524636187, 0.08330198418695878, 0.30020175587489745, 51589000000, 
-0.1767636758514779, -0.01864873522111834, 0.29984416794409535, 51594000000, 
0.005385330859208972, 0.054346423017216074, 0.3004296366996213, 51599000000, 
-0.05647656143543178, 0.03895872448252762, 0.30000395139083236, 51604000000, 
-0.04670300875572539, 0.04301360640653333, 0.2997850806917988, 51609000000, 
-0.05709850260671842, 0.05431218398655252, 0.29997910808651107, 51614000000, 
-0.08348855517991466, 0.04349861310867218, 0.29952657963570123, 51619000000, 
-0.07157983713733286, 0.07825823386075387, 0.29965076666493035, 51624000000, 
-0.08002569127613998, 0.03373852206738689, 0.2995442143328611, 51629000000, 
-0.09291664411471033, 0.03667555346028084, 0.2997610252037005, 51634000000, 
-0.06241449257950556, 0.011534583133202159, 0.2995902734600636, 51639000000, 
-0.0819198197005841, 0.04440990446795484, 0.29967570190419685, 51644000000, 
-0.0738943709223139, 0.03757347583025528, 0.2998721190964327, 51649000000, 
-0.03214865585704994, 0.06643434310734864, 0.29961086141189974, 51654000000, 
-0.0681995025342712, 0.008783741121240661, 0.3000914892694941, 51659000000, 
-0.06495749502807435, 0.031956467213968706, 0.29974274790944283, 51664000000, 
-0.07162596795787644, 0.06801755800957233, 0.2998103092631423, 51669000000, 
-0.07426533738396694, 0.07265732515279581, 0.3000372377110402, 51674000000, 
-0.08795120973136444, 0.039743364323438085, 0.30003460866894605, 51680000000, 
-0.04651026584454539, 0.04110763354028929, 0.30040799998296663, 51688000000, 
-0.04914071013453986, 0.06865580929093577, 0.29980733492824785, 51693000000, 
-0.16768332741222172, -0.046829973449844436, 0.30025140164841624, 51699000000, 
0.09785457522336405, 0.14758125802431415, 0.299984119012213, 51704000000, 
-0.07102680329030985, 0.009217504553857198, 0.30017462744711604, 51709000000, 
-0.12058634263642669, 0.01817302929333383, 0.30081574253976034, 51719000000, 
0.06817094673537273, 0.126804429931507, 0.2999248454909996, 51724000000, 
-0.07235202286730723, 0.028702370501131266, 0.300269927429853, 51730000000, 
-0.2091067331739723, -0.06526213781298196, 0.30006758021724017, 51735000000, 
0.0581457568541289, 0.14659168771209075, 0.2998567294316455, 51740000000, 
-0.032160980121873774, 0.05145076139796167, 0.29998472518176417, 51745000000, 
-0.1931451889334137, -0.04586458066101292, 0.30046806675633436, 51751000000, 
0.14458279625360948, 0.17675580932363702, 0.30032343330190225, 51755000000, 
-0.159524622980615, -0.029280742798974423, 0.3000730535918084, 51760000000, 
-0.06423129983336615, 0.04974641812854525, 0.30013199024423015, 51765000000, 
0.09137845324179987, 0.17207615831178463, 0.2999147277099977, 51770000000, 
-0.15068803777524464, -0.04277425957854434, 0.2998144785186659, 51777000000, 
0.05953003340330286, 0.1356516719424797, 0.3001011547687647, 51782000000, 
-0.2509589162879086, -0.08222288462157387, 0.2997069390550636, 51787000000, 
-0.03679522082423147, 0.06705594895849454, 0.300181815827679, 51792000000, 
0.08652661023339894, 0.14274348930772496, 0.30010185570694303, 51797000000, 
-0.19314757251404246, -0.05706949991582816, 0.30026974499879844, 51802000000, 
-0.02128198204711012, 0.0696274560247576, 0.3004964027273085, 51807000000, 
-0.07304273949999679, 0.0711423260935685, 0.3002170191795508, 51813000000, 
-0.03165213044500806, 0.07366692477307946, 0.3001984394637748, 51817000000, 
-0.07757476922106674, 0.053544705762122696, 0.29986926008629117, 51822000000, 
-0.09997452320893567, 0.039473294941340234, 0.3006014400299943, 51828000000, 
-0.06298202362087588, 0.048252373511352455, 0.29980837121320386, 51833000000, 
-0.030903299081026476, 0.056858830360144684, 0.3002169603879687, 51838000000, 
-0.0775517225630647, 0.06271320772550928, 0.3001821692559363, 51843000000, 
-0.056714886645797116, 0.05631220115000482, 0.29972657370606, 51848000000, 
-0.06455188960205609, 0.05857423769131235, 0.30003462081722065, 51853000000, 
-0.07172722124978449, 0.06508993422317687, 0.3003392908801885, 51859000000, 
-0.057639437486516405, 0.07052238189221142, 0.29981707709336863, 51864000000, 
-0.051737000223836045, 0.06839456654089766, 0.29991318023412594, 51869000000, 
-0.0751124928830087, 0.09115207278656284, 0.3002102627347631, 51874000000, 
-0.04471512866596705, 0.05545999602716798, 0.2998460953582628, 51879000000, 
-0.027615661219412755, 0.05948835966370458, 0.2995581599161446, 51884000000, 
-0.042027671180695975, 0.06407598096354439, 0.29977807739261747, 51889000000, 
-0.04644648393149387, 0.05483851596277839, 0.29979270722266793, 51894000000, 
-0.024520804919256834, 0.09085677147368804, 0.2998350303439891, 51899000000, 
-0.033293167710466864, 0.06026087180747448, 0.30005798432989, 51904000000, 
-0.04529409362562454, 0.06239631738600975, 0.29984026789300133, 51909000000, 
-0.040030758541955286, 0.049592369827920764, 0.30019742360460044, 51914000000, 
-0.053554153203493035, 0.06303536879686852, 0.30017393165298456, 51919000000, 
-0.07516421205593846, 0.03951678899144874, 0.2991787378976846, 51924000000, 
-0.04121915635016615, 0.03259445388464509, 0.29980612824434977, 51929000000, 
-0.08097601792741949, 0.07096117249777754, 0.3001028432394131, 51934000000, 
-0.06505761171560294, 0.07213955648650752, 0.30039172824838406, 51939000000, 
-0.045739174187785246, 0.028760349364625352, 0.3001130207689339, 51944000000, 
-0.050272744146949544, 0.043647777617077096, 0.30003931044927673, 51949000000, 
-0.040609449247502476, 0.04728975231829057, 0.299888808357045, 51954000000, 
-0.07892544092298823, 0.02623183913399104, 0.3001107621557122, 51959000000, 
-0.037614306873348075, 0.04829070081857901, 0.29968555201165226, 51964000000, 
-0.04800363910301677, 0.0652422725480474, 0.2998612592490234, 51969000000, 
-0.03525214805735692, 0.07069599329602656, 0.3000207635507096, 51975000000, 
-0.04760038682547089, 0.06315659752173106, 0.30010375044335325, 51980000000, 
-0.07499620921076669, 0.060442423428438904, 0.29976776604448463, 51985000000, 
-0.06576755993859203, 0.045419090488605436, 0.2998505463009113, 51990000000, 
-0.030011377988976854, 0.06948823845798702, 0.30010428977711484, 51995000000, 
-0.044130826429181695, 0.07414762553204629, 0.2996360069638939, 52000000000, 
-0.04932462003476896, 0.06937112593327226, 0.3001240176359542, 52005000000, 
-0.04913327902616413, 0.05018063721225583, 0.30011039210539564, 52010000000, 
-0.03392184592737919, 0.07677854107680275, 0.2999864845418547, 52015000000, 
-0.05934987854826164, 0.041376443245015326, 0.30013415659743686, 52020000000, 
-0.05364825432323494, 0.047128517625320644, 0.29978760071601623, 52025000000, 
-0.04205809570420295, 0.06904798043999724, 0.29990348049524035, 52030000000, 
-0.06625846842717192, 0.05199188071756962, 0.2994885350089807, 52035000000, 
-0.022547124628424103, 0.031144830133627035, 0.30002378403557034, 52040000000, 
-0.02316628520141586, 0.05401628732256211, 0.2996230762956337, 52045000000, 
-0.027590162626386076, 0.06449506256220636, 0.2996068062831609, 52050000000, 
-0.06452819757852989, 0.041834183601569416, 0.29984844588385023, 52055000000, 
-0.04052360353561301, 0.0394610173153247, 0.2999122902758735, 52060000000, 
-0.025952367105095117, 0.06483421263211003, 0.29992844567923904, 52065000000, 
-0.04877135343800265, 0.05827411765195732, 0.30015187260622317, 52070000000, 
-0.043283588522600204, 0.08338106669054565, 0.29990929105709696, 52075000000, 
-0.024337454204440556, 0.02220121312042299, 0.30049720758272513, 52080000000, 
-0.045769444125314494, 0.061020811924713994, 0.30009164929064813, 52085000000, 
-0.021725693635950276, 0.03934933873571467, 0.29981826746886786, 52090000000, 
-0.030098403042650275, 0.06814099215967573, 0.3002806312729874, 52095000000, 
-0.04987713491304185, 0.03374599363920657, 0.30012696934322936, 52100000000, 
-0.027795490730246723, 0.06504613155078832, 0.2999039562898441, 52105000000, 
-0.043376641712764376, 0.0396809394634101, 0.30002762688386336, 52110000000, 
-0.03876566785282233, 0.05522809330529418, 0.3001367683195239, 52117000000, 
-0.030072957659293312, 0.07009240020692797, 0.3003590003736662, 52122000000, 
-0.04024355778208955, 0.07470329533843081, 0.2999069398466052, 52130000000, 
-0.0280829874647886, 0.05922230035483689, 0.29997711331015586, 52135000000, 
-0.056437836731282755, 0.056464130056437085, 0.2998297663068737, 52140000000, 
-0.053954433678642125, 0.07622100312332462, 0.30002532819682665, 52145000000, 
-0.03312669978077121, 0.06403875667344477, 0.29994418011780294, 52150000000, 
-0.0449318740905995, 0.022671862359196084, 0.29993751697611737, 52156000000, 
-0.027085992677790376, 0.06386450236169802, 0.30001805121698916, 52161000000, 
-0.04502362294045089, 0.04567375786430202, 0.3000688823243639, 52166000000, 
-0.03395823916750344, 0.02796251138676986, 0.300020323779881, 52171000000, 
-0.06731157189327819, 0.06905182094814899, 0.29992478726074867, 52176000000, 
-0.03915919059851684, 0.05309468819195636, 0.2998978941228318, 52181000000, 
-0.06883542932833456, 0.058989085057982726, 0.30045655891438766, 52186000000, 
-0.08776163537151602, 0.06909846711140845, 0.300267771973879, 52191000000, 
-0.034599330801530034, 0.04145292108568666, 0.3000194870401264, 52196000000, 
-0.0508986769056261, 0.06136577107814976, 0.2999681047270263, 52201000000, 
-0.035368487620179204, 0.06737350224443721, 0.29992196056786186, 52206000000, 
-0.011262690086151168, 0.07349060004231693, 0.3000086557559652, 52211000000, 
-0.06667079651848408, 0.06851935296686064, 0.30041209071755126, 52216000000, 
-0.07014499030520814, 0.047219430785723694, 0.2997122449045932, 52221000000, 
-0.05116556775065659, 0.06076611003687836, 0.2997896624545228, 52227000000, 
-0.03860461099571566, 0.09801171661347549, 0.30033006557987624, 52232000000, 
-0.06985720688349967, 0.06268375459089111, 0.3002280873000307, 52238000000, 
-0.04467196191545495, 0.06396220124757426, 0.3000915868211125, 52243000000, 
-0.05039066894888148, 0.05005021474568262, 0.299845432411421, 52249000000, 
-0.06068341408826407, 0.03706423698301105, 0.3000187898555266, 52255000000, 
-0.054974989940807156, 0.05931174313735901, 0.29993181190263724, 52260000000, 
-0.04349092103446922, 0.08174310722922415, 0.29971210918221186, 52265000000, 
-0.047244109869816225, 0.06159110900773468, 0.3003308034747185, 52270000000, 
-0.059815986954905365, 0.033268066072945746, 0.29986814805241463, 52275000000, 
-0.08904143258753242, 0.06346629498441644, 0.2999884239275863, 52280000000, 
-0.029322321667416423, 0.06197544679715207, 0.2999756003676019, 52285000000, 
-0.05275358619312832, 0.05827010898726289, 0.29967426718483, 52290000000, 
-0.046318574669677905, 0.05264642158879296, 0.29995666273484556, 52295000000, 
-0.047469396094408596, 0.060244280165599504, 0.2998416153809302, 52300000000, 
-0.06419247295643053, 0.05488014179457638, 0.3000804486541197, 52305000000, 
-0.04534780737906812, 0.06942261187683929, 0.3000153111903216, 52310000000, 
-0.0794847187152823, 0.045360818107752277, 0.300027224775599, 52315000000, 
-0.04569482492009166, 0.04474234086746774, 0.299935303584343, 52320000000, 
-0.056005096185653365, 0.0779900472961651, 0.30001412317847836, 52325000000, 
-0.06073839449830593, 0.05083805877593788, 0.29983384834200216, 52330000000, 
-0.05755243150694582, 0.06883437102891982, 0.3000451396048319, 52335000000, 
-0.023478275967569063, 0.11810689388049098, 0.29976295472938375, 52340000000, 
-0.12197812414284323, 0.005152094627732428, 0.2998527493303756, 52345000000, 
-0.08147076768239497, 0.09479004915507663, 0.29989381060377274, 52350000000, 
0.018837231963526768, 0.12536436785146654, 0.29958886099035364, 52355000000, 
-0.11388151698351906, -0.0008238357498400618, 0.2999254676083669, 52360000000, 
-0.024246752029755066, 0.1227919673131897, 0.29991093223419707, 52365000000, 
-0.05113076472158407, 0.06862327841153675, 0.299472031400043, 52370000000, 
-0.10124519100217698, -0.005139284582529295, 0.29997725488423654, 52376000000, 
-0.0019226514174677765, 0.08558849862787671, 0.29987062160120626, 52381000000, 
-0.04987614250206035, 0.04513503815404012, 0.29994019066538613, 52386000000, 
-0.10314057289781808, -0.004433206368638306, 0.29971690762385783, 52391000000, 
-0.019999856171837735, 0.14469848856739276, 0.30003416184333015, 52396000000, 
-0.06605319010912374, 0.06879488635477184, 0.30000058415303527, 52401000000, 
-0.12526714677983508, -0.0012154421982274932, 0.2999476960595396, 52406000000, 
-0.027125966472979192, 0.15252142631104218, 0.29997260525750036, 52411000000, 
-0.03136388743783003, 0.06639036379565821, 0.2998393243143615, 52416000000, 
-0.11433991414511256, 0.00981461387466396, 0.2995584969965198, 52421000000, 
-0.0014758630600193202, 0.13368671516737876, 0.2998145655259677, 52426000000, 
-0.07316662799050591, 0.04487112509612931, 0.2998467134710134, 52431000000, 
-0.07694320876897456, 0.07257476418879484, 0.299871277503455, 52436000000, 
-0.04718965258046165, 0.10856379101267934, 0.3001331017605237, 52441000000, 
-0.05859127768845142, 0.08431971714428352, 0.2993464037846762, 52446000000, 
-0.07824290673769695, 0.060867285923281465, 0.299834300561337, 52451000000, 
-0.12161013461096677, -0.006352082245911201, 0.30018742735998766, 52456000000, 
-0.028829309364784766, 0.13980737993877396, 0.30035216088449407, 52461000000, 
-0.04943959538908326, 0.1006504044396139, 0.29986910629277524, 52466000000, 
-0.09155678636152614, 0.05116340375780092, 0.3002333273081926, 52471000000, 
-0.12596367576272496, -0.027408206575765846, 0.3003759131839365, 52476000000, 
-0.02379222819858042, 0.11267357060207261, 0.30017881623399184, 52481000000, 
-0.07405053182807599, 0.07916915791321393, 0.2997600594574289, 52486000000, 
-0.10118033992242409, 0.06403975770150232, 0.2997611044580297, 52491000000, 
-0.14794888805576353, -0.061318113921400665, 0.30032095697882977, 52496000000, 
-0.04145399594352117, 0.16992341450807466, 0.29991924719157614, 52501000000, 
-0.10697101538032372, 0.08564607122690743, 0.30042051619365, 52506000000, 
-0.11886184916905106, -0.012373794869021145, 0.30001262288397856, 52511000000, 
-0.04475239522286784, 0.1487482039949572, 0.30000554072294594, 52516000000, 
-0.05503900331785061, 0.01721281636418486, 0.2999156769840753, 52521000000, 
-0.10388088720812404, -0.04908188637294643, 0.30012613811030686, 52526000000, 
-0.0011576129006646008, 0.1578177735261776, 0.3004199763815197, 52531000000, 
-0.030116566579866406, 0.0602717328681454, 0.2999275248802531, 52538000000, 
-0.06985425589871744, -0.008735115729582358, 0.30051271946981944, 52543000000, 
0.017277968718108997, 0.22389343049994587, 0.30019860051903363, 52548000000, 
-0.1008642954169184, -0.03223915972110464, 0.2998996051803142, 52554000000, 
-0.024795190675715277, 0.15412865425380734, 0.3000085489984646, 52559000000, 
-0.07142502563433906, 0.07115389521491038, 0.3001322866972781, 52564000000, 
-0.09515884533640437, -0.055574451410146546, 0.3000792189968674, 52569000000, 
-0.037983259369460655, 0.07945890070937334, 0.3002914660501663, 52576000000, 
-0.07410311615307491, 0.06595567637189202, 0.2999438106414656, 52582000000, 
-0.09245782805598873, 0.0732523080872389, 0.30029598795154633, 52587000000, 
-0.02070819512319988, 0.15156913598896676, 0.29984773871515885, 52593000000, 
-0.09407247341181135, -0.08333321860773721, 0.2996795821487901, 52598000000, 
-0.0604253529866495, 0.0576898086396622, 0.3004033305154986, 52604000000, 
-0.08220144323521707, 0.06388167080091522, 0.3002723900496142, 52615000000, 
-0.025402599532116307, 0.17860552580273395, 0.30048079571377473, 52620000000, 
-0.07725293388816375, -0.07694035967635718, 0.3001192314869036, 52625000000, 
-0.04250357952644236, 0.06840131056930539, 0.3003213278412658, 52630000000, 
0.010711911127587005, 0.1619382522014557, 0.300068338475878, 52635000000, 
-0.12023166867174816, -0.05149268374092092, 0.30006589316946114, 52640000000, 
-0.061811685848651994, 0.0703621874372491, 0.30053462270366105, 52645000000, 
-0.007249143540226263, 0.20189012524441474, 0.30082319693377413, 52650000000, 
-0.07619098113740425, -0.004901536755188351, 0.2999478560264844, 52655000000, 
-0.04281000911298424, 0.06959265768807361, 0.3003655354715096, 52660000000, 
-0.037311752155446395, 0.055909402884387976, 0.3000630794372135, 52665000000, 
-0.04802633763311003, 0.08584923214035842, 0.30013827149069516, 52670000000, 
-0.06767289193642, 0.08635187095940096, 0.3003801955893737, 52675000000, 
-0.06186543502039476, 0.086413153023107, 0.3002419700071079, 52681000000, 
-0.0587009662469804, 0.06446577924813233, 0.3002823669308848, 52686000000, 
-0.06255850614232754, 0.06773364791453748, 0.30014663668830405, 52691000000, 
-0.07130485735855421, 0.06069037479559948, 0.30025957047298685, 52696000000, 
-0.03802009658578155, 0.05506373096705537, 0.29981087002661383, 52701000000, 
-0.049792307854640214, 0.08937016498492863, 0.2995538475127544, 52706000000, 
-0.0637691459901763, 0.09539585440496778, 0.29960988376242426, 52711000000, 
-0.0727773033063337, 0.06577462265390042, 0.30010240897774937, 52716000000, 
-0.06162861881157633, 0.07333361102877409, 0.29994191377185964, 52721000000, 
-0.0513904062867028, 0.06540612444542383, 0.29979391305610853, 52726000000, 
-0.066751569224318, 0.0662024286238816, 0.29971258047175287, 52731000000, 
-0.03314895921305948, 0.07752421346377439, 0.29983322577674065, 52736000000, 
-0.04088036667615278, 0.09357849752725317, 0.2994606922269835, 52741000000, 
-0.032842585427594426, 0.0998460695851695, 0.30015599892862704, 52746000000, 
-0.03064649583930373, 0.09952512788852796, 0.2997079760397, 52751000000, 
-0.04160804863980849, 0.08378053732407355, 0.3000896142302668, 52756000000, 
-0.05408716677500593, 0.049267634427308166, 0.3001507461833398, 52761000000, 
-0.06546215408780252, 0.08875828108551015, 0.30003065440587406, 52766000000, 
-0.08627016325386386, 0.045279461361829074, 0.3000761656198275, 52771000000, 
-0.06646941492438445, 0.033077760660611716, 0.3000345361577947, 52776000000, 
-0.058357524532041016, 0.08271155764502694, 0.30014163682179684, 52781000000, 
-0.029278019322426584, 0.06445292507502168, 0.3000937795778381, 52786000000, 
-0.04621356475812794, 0.06251805741484917, 0.3004988092603242, 52791000000, 
-0.04429106822733257, 0.04918517455957061, 0.30017139831152295, 52796000000, 
-0.054359906438541605, 0.06836180590854982, 0.3004625382135502, 52801000000, 
-0.04356064205825454, 0.09971555029809202, 0.3000877786107559, 52806000000, 
-0.06355829101653428, 0.07402500134947695, 0.2999137759632259, 52811000000, 
-0.0344932228549487, 0.11499982255814092, 0.3001113807673399, 52816000000, 
-0.037041513118051095, 0.06191949975085338, 0.29993065866912816, 52821000000, 
-0.05217934247318205, 0.06459006118626545, 0.2995581222037071, 52826000000, 
-0.06721602142550313, 0.08351382567324253, 0.2997293127825279, 52831000000, 
-0.033912985547706734, 0.053796476774627025, 0.3003573870814478, 52836000000, 
-0.04074382265876429, 0.05106863540325572, 0.29981957335636833, 52841000000, 
-0.05484093465966816, 0.06788618339260201, 0.3000527921329659, 52846000000, 
-0.031986403062857036, 0.08296789926739588, 0.30011002942786913, 52851000000, 
-0.04334608228679773, 0.058532226813792596, 0.2997880945565273, 52856000000, 
-0.058260055015456585, 0.09653427679346795, 0.29997981925066775, 52861000000, 
-0.028393053128270902, 0.050379015424672574, 0.2999292159035835, 52866000000, 
-0.00825109332468961, 0.09518528840866447, 0.299946308579595, 52871000000, 
-0.07441282124187378, 0.08505310729815486, 0.2997115478789901, 52876000000, 
-0.046625317867967926, 0.07561180391815633, 0.30018871858284185, 52881000000, 
-0.035725081593442704, 0.09441300809277123, 0.3002134963720939, 52886000000, 
-0.06019388496368445, 0.05189072881025818, 0.2999762394269056, 52891000000, 
-0.06155744597071549, 0.07504560073444302, 0.3003314752120383, 52896000000, 
-0.04787061737464478, 0.04494245649713919, 0.29992531613775514, 52901000000, 
-0.07167329778474468, 0.0765129823717369, 0.30009225498260017, 52906000000, 
-0.05658423287122485, 0.062196778791338246, 0.30001384188230706, 52911000000, 
-0.0668991839280244, 0.09346246888721525, 0.30023818812410596, 52916000000, 
-0.043190440341084914, 0.0860716028662648, 0.30012220545410634, 52921000000, 
-0.06430139120328157, 0.057787635316457454, 0.29997457063792227, 52926000000, 
-0.07041542921157047, 0.09314902031072983, 0.2997301213608119, 52931000000, 
-0.03707616225165756, 0.060189053631725595, 0.299811640476658, 52936000000, 
-0.049973206997647554, 0.09154155168569722, 0.29968677706396285, 52941000000, 
-0.03293650542175008, 0.07751461244027068, 0.30012810275867285, 52946000000, 
-0.023851722673049185, 0.06049636976977245, 0.2999875925032531, 52951000000, 
-0.07830355072165648, 0.08838409121478011, 0.2998687860416566, 52956000000, 
-0.037850975701327394, 0.09339216479170506, 0.2995971073218337, 52961000000, 
-0.10971516726210578, 0.07237290512371773, 0.299971388885734, 52966000000, 
-0.06037657213965556, 0.15117589765198494, 0.3004034822916258, 52971000000, 
-0.07872592688496807, -0.002561410560707564, 0.2995901663515015, 52976000000, 
-0.06880783652385873, 0.057005291083068996, 0.2996464296614773, 52981000000, 
-0.051776120959779036, 0.14287504371452564, 0.2998943898351734, 52986000000, 
-0.056266715623687805, 0.01851433379247281, 0.29995152300132444, 52991000000, 
-0.07127159205264524, 0.04213915621216073, 0.2999912127294582, 52996000000, 
-0.01481007094962394, 0.14783543294631177, 0.2998293060965434, 53001000000, 
-0.10419768056024376, 0.034631650545932965, 0.3002506112738271, 53006000000, 
-0.044864699457817195, 0.17843090565465128, 0.29981456451182426, 53011000000, 
-0.06461153195149823, 0.06628354492086405, 0.30001631468917844, 53016000000, 
-0.05783164116144531, 0.016500907158634722, 0.30014818668914944, 53021000000, 
-0.025979496518311856, 0.14691425521759624, 0.2997829732060695, 53026000000, 
-0.06226335271947463, -0.0003697855851441708, 0.29991301867439785, 53031000000, 
-0.07228166142092303, 0.06409067067432599, 0.2999295728875144, 53036000000, 
-0.04394938709440106, 0.1444373154660241, 0.2998237940453721, 53041000000, 
-0.07580843483118449, -0.016671276386400785, 0.3002590224611721, 53046000000, 
-0.06279626521780889, 0.1600560873124991, 0.30015406547020035, 53051000000, 
-0.0732862841902732, 0.07963534482624621, 0.2998731912532696, 53056000000, 
-0.08201486531723155, -0.022085728763005453, 0.3002633835772856, 53061000000, 
-0.05091479713928618, 0.14575756708759746, 0.3001218947939023, 53066000000, 
-0.05971819130227832, 0.07987885314730793, 0.2995466583870541, 53071000000, 
-0.10681869201056929, -0.021584389400240097, 0.299796047175819, 53076000000, 
-0.055922378673261455, 0.15804986804309068, 0.3003488163966734, 53081000000, 
-0.05854678185962407, 0.05035822205981268, 0.2997878864720441, 53086000000, 
-0.09016474517999985, 0.0026406953203163396, 0.30022467084384996, 53091000000, 
-0.018841743044681617, 0.1697898675212972, 0.30011110159945065, 53096000000, 
-0.08482005337124066, 0.07684622527013192, 0.3000823589962559, 53101000000, 
-0.08645569940061289, -0.03890135319104168, 0.30014674992378765, 53107000000, 
-0.017962211151619657, 0.14725405799938573, 0.2997929874852436, 53112000000, 
-0.11469754995041406, -0.03315063460999708, 0.30015658123693756, 53117000000, 
-0.010113039538239596, 0.156643641770631, 0.29993476403645497, 53122000000, 
-0.08008581055348545, 0.06853999469804598, 0.29983952331133784, 53127000000, 
-0.08591823957474422, -0.019206120044280597, 0.3002403967820251, 53132000000, 
-0.036003041849642536, 0.1745829290737556, 0.3002796719302936, 53137000000, 
-0.05516160043916195, 0.05108410166332611, 0.29980520546385303, 53142000000, 
-0.0945363932613386, -0.04589210593370119, 0.3000748564687728, 53147000000, 
-0.027521884547636703, 0.20560685672936013, 0.3000059629849673, 53152000000, 
-0.06099556487028568, 0.09109711820723002, 0.2999063667130529, 53157000000, 
-0.05893989940434369, -0.014587023058257443, 0.3003790771687909, 53162000000, 
-0.05666888670376284, 0.1726544484183465, 0.3003398821244005, 53167000000, 
-0.09273932872141259, 0.012762292526428146, 0.29996901529348385, 53172000000, 
0.0017082408675491365, 0.25851559749787045, 0.30011299886366827, 53177000000, 
-0.05612468816468637, 0.043598599048864706, 0.3001181506466651, 53182000000, 
-0.07946534838419446, -0.013801799040017701, 0.3001669992489809, 53187000000, 
-0.03796645099435078, 0.20268699490835895, 0.3000063473957705, 53192000000, 
-0.11200283893580754, -0.07185768098221595, 0.29975075269124357, 53197000000, 
-0.004342059756835579, 0.21583194451241552, 0.3002150480613405, 53202000000, 
-0.06387448276851242, 0.07988001192603106, 0.3002300843050256, 53207000000, 
-0.07317799291170816, 0.08980527310743375, 0.3003752511659631, 53216000000, 
-0.06617931792642127, 0.018462966946592066, 0.29973003819075805, 53221000000, 
-0.057361999907464614, 0.08554127278385304, 0.3002521319431039, 53226000000, 
-0.021832088609957313, 0.1439590745805806, 0.30021633077034066, 53231000000, 
-0.08651274970854032, -0.0560878875786448, 0.3000444091602196, 53236000000, 
-0.03506956660251119, 0.06650342496976554, 0.30047882699180173, 53241000000, 
-0.05337756626753347, 0.14590269627123673, 0.3000420207057184, 53246000000, 
-0.09589342047582011, -0.06575155273864418, 0.30032981358128386, 53251000000, 
-0.05208645200667598, 0.08685140303951829, 0.30014021042815864, 53256000000, 
-0.08895519014198511, 0.07236422815106675, 0.30011889630354366, 53261000000, 
-0.0639520581322007, 0.0646047091517242, 0.3004358027216343, 53266000000, 
-0.06861454528536193, 0.12487205748187931, 0.299943132908154, 53271000000, 
-0.047123087207190384, 0.07848952719113297, 0.3003604174700765, 53276000000, 
-0.04167786325471444, 0.07650557054226234, 0.30018627409594956, 53281000000, 
-0.06125527929880367, 0.16478526446498903, 0.30023404264120596, 53288000000, 
-0.10799584639271734, -0.012350255656038842, 0.29987705911066337, 53293000000, 
-0.05539271098927801, 0.07943045876000449, 0.2999603737252861, 53299000000, 
-0.033483825625577605, 0.08344943688977931, 0.3001354288921025, 53304000000, 
-0.06737906561021476, 0.08375255020041382, 0.3000337065809646, 53309000000, 
-0.044720213615480994, 0.12104656511064778, 0.29984356706287574, 53314000000, 
-0.041464772286990054, 0.07416612751803817, 0.3003996627908466, 53319000000, 
-0.03501996090452501, 0.07883279193628338, 0.3003341306659714, 53325000000, 
-0.03929166440272076, 0.08188652689402928, 0.2998144582640316, 53330000000, 
-0.06685755872303857, 0.07476825907150964, 0.2998760995718706, 53337000000, 
-0.05876880015592461, 0.08676897489328729, 0.30017969091095364, 53343000000, 
-0.055548036041002655, 0.08554523947535314, 0.3004422097718303, 53348000000, 
-0.05895886830340039, 0.05967166377064504, 0.3002467291102002, 53353000000, 
-0.06337646662968031, 0.08507392601354531, 0.3000568459432487, 53358000000, 
-0.06735116582904545, 0.095507493160119, 0.29998458272222733, 53363000000, 
-0.06434512371157973, 0.06648001928048136, 0.30007046947707655, 53368000000, 
-0.030636413037025027, 0.08723381293505726, 0.3000485899096523, 53373000000, 
-0.06551745523518228, 0.03428400016203985, 0.3001861230411607, 53380000000, 
-0.05817235531382919, 0.09869150158052746, 0.2998808854501677, 53385000000, 
-0.056722359265274254, 0.09772079826822243, 0.30001170764114726, 53390000000, 
-0.04104447527981032, 0.06221779735922175, 0.30006541658489533, 53395000000, 
-0.04064279275394729, 0.08255333993272276, 0.3001459885175294, 53400000000, 
-0.07737187930798246, 0.09466818240819595, 0.3000703317761346, 53405000000, 
-0.02352173233672736, 0.07666980473338986, 0.30034865745705175, 53410000000, 
-0.05638238406795608, 0.07963999805958931, 0.30002476057951405, 53415000000, 
-0.047809239932010215, 0.12452203592752549, 0.2997884465212331, 53420000000, 
-0.04147785007356491, 0.08416364874339724, 0.2999459563624681, 53425000000, 
-0.08564524533635506, 0.11683216780024078, 0.300014729263516, 53430000000, 
-0.05077669037927331, 0.10140671493567276, 0.2999813552269483, 53435000000, 
-0.08393674629004637, 0.09296212543069662, 0.29965075093574434, 53440000000, 
-0.05667971744328866, 0.1086419863331122, 0.3000698877002533, 53445000000, 
-0.06287691839137237, 0.10035092402372367, 0.29988300270656, 53450000000, 
-0.030980576166377664, 0.09047085059073116, 0.2999696672459127, 53455000000, 
0.0002894037211816809, 0.16669042645607252, 0.30039400222741114, 53460000000, 
-0.05813645381370045, 0.033399113045743827, 0.29994361435077505, 53465000000, 
-0.06352746476228714, 0.09657140781321859, 0.30006810652514715, 53470000000, 
-0.06858926684416415, 0.0710293004643964, 0.3000556480297274, 53476000000, 
-0.01724834933466862, 0.16489208271807074, 0.29985550707076747, 53481000000, 
-0.03597317405022763, 0.04214007004947718, 0.29979175610942005, 53486000000, 
-0.03991095424943012, 0.05962256193685016, 0.30000648793801954, 53491000000, 
-0.04344516866348548, 0.08171309026605603, 0.29972665674206933, 53502000000, 
-0.05056310103346404, 0.09081927632314345, 0.2998808675920112, 53507000000, 
-0.04589412233000995, 0.1767345839185968, 0.30008201945025287, 53512000000, 
-0.046968553986250855, 0.011630697306715742, 0.2999417082757923, 53517000000, 
-0.05212009142306577, 0.09388956179618983, 0.30020631232849154, 53522000000, 
-0.03652107717033096, 0.07435613040017518, 0.30022042630856416, 53527000000, 
-0.0429126652365787, 0.06744364288105723, 0.2998086401885669, 53532000000, 
-0.04710953736647576, 0.09699700875709731, 0.3001415842489529, 53537000000, 
-0.05073485764085545, 0.07684279710555394, 0.30005161926991963, 53545000000, 
-0.0676601730319551, 0.07295765394147957, 0.30004166525813053, 53550000000, 
-0.026580407922639368, 0.09956522722489335, 0.2998933808343663, 53557000000, 
-0.03009348743065634, 0.14357493173096164, 0.300009937447914, 53564000000, 
-0.04842628197278255, 0.002311871394171045, 0.29974695600383583, 53569000000, 
-0.029995318073326938, 0.08228612602619395, 0.30031723257958326, 53574000000, 
-0.050313859111580976, 0.14256612013387532, 0.2998666323541067, 53579000000, 
-0.08645605583685247, -0.03405390100416315, 0.29995431750061025, 53584000000, 
-0.026031561238648936, 0.1402554664283566, 0.30023184551426124, 53589000000, 
-0.029834167110470412, 0.047395169576429516, 0.2995864072738426, 53595000000, 
-0.05708471935627544, 0.0875419788574856, 0.29988980522573766, 53600000000, 
-0.01786113114239945, 0.14609472982739052, 0.2999136229013159, 53605000000, 
-0.08438687525330503, 0.011000371908705519, 0.2998684849642363, 53610000000, 
-0.05359334071302394, 0.14968891225026879, 0.3002059422794036, 53615000000, 
-0.04264879290956547, 0.0791696844871311, 0.29982466226217835, 53620000000, 
-0.1015824110160194, -0.02984783660018857, 0.3000352580859164, 53625000000, 
-0.04805172660488225, 0.14172333228504103, 0.2999733972148466, 53630000000, 
-0.02341119444366629, 0.08494575935058644, 0.29984104392433314, 53635000000, 
-0.09719424069339844, -0.015598978722339158, 0.2994996812155014, 53640000000, 
-0.03640634749919436, 0.15536880093732852, 0.29986105843331995, 53645000000, 
-0.02894528504309766, 0.05712810832923636, 0.2998351742248226, 53650000000, 
-0.0574995138736366, -0.06408719168101232, 0.30008550235514536, 53655000000, 
-0.04983374185860836, 0.2074678167185217, 0.2999079154735685, 53660000000, 
-0.05403464559200373, 0.08239069839437016, 0.30003235251708554, 53665000000, 
-0.07931377812454089, -0.017495429762822798, 0.3001325840853965, 53670000000, 
-0.03383304500818911, 0.17267228151913452, 0.29994174532286005, 53675000000, 
-0.08204625363453212, -0.000502744583698967, 0.29962115138959067, 53680000000, 
-0.06970255499059883, 0.13595259860137313, 0.299891915234096, 53687000000, 
-0.029645702296642554, 0.08190080267120455, 0.29979203892389117, 53693000000, 
-0.076396035614396, 0.028517091904355862, 0.29993683562389833, 53698000000, 
-0.053316763783980994, 0.15471255623179492, 0.29990895731577016, 53703000000, 
-0.24966960572880792, 0.12339107399659853, 0.30377323815506335, 53708000000, 
0.03794326614894287, 0.030084065836267222, 0.30566274384110553, 53713000000, 
0.16817961602570647, 0.015512883009895829, 0.3107246451574607, 53718000000, 
0.8141923268978631, -0.1521800918831434, 0.3202971617549277, 53724000000, 
-1.447859199001556, 2.662734062488882, 0.34054261839500666, 53729000000, 
-2.085620934579145, 4.10480793977597, 0.3839464184220243, 53735000000, 
1.7749524740136131, -5.999419476221379, 0.4028847524577316, 53740000000, 
-1.5416063758789815, -0.8078196710638124, 0.41133264984961226, 53747000000, 
-0.9506345909736785, 0.0993868717194066, 0.41752839783831924, 53752000000, 
-0.45545494652765994, 0.10360281621031897, 0.42680632203316715, 53757000000, 
-0.23606291895203302, 0.09313912405347329, 0.4348169533189957, 53762000000, 
-2.373784172269423, 0.23063226430483363, 0.4436429198488831, 53767000000, 
0.7241353265421855, 0.20004122826118242, 0.4505345558912151, 53772000000, 
9.639043690015509, 0.4802333066997415, 0.4623037245027143, 53778000000, 
-3.270483448078082, -0.22049910433844838, 0.4727358027858018, 53783000000, 
3.2134670108952714, 0.3306314596827056, 0.4809096141125199, 53788000000, 
-14.744634762002724, -2.971440657253644, 0.4792685094969737, 53793000000, 
1.4794937635381682, 1.0927774123948515, 0.4867711346540876, 53798000000, 
8.068315516259384, 2.1230633838649777, 0.4968624125683081, 53803000000, 
-2.4275787873170773, -2.4963706481586767, 0.5014836521859835, 53808000000, 
-4.7505751957082705, -2.7453759584407194, 0.5043262115655673, 53813000000, 
2.417007090774609, 2.7546515341064333, 0.5133359665804363, 53818000000, 
-6.456190424830085, -3.253425270529326, 0.5130804905138202, 53824000000, 
10.250984357426093, 2.476919191924576, 0.5267610924437239, 53829000000, 
0.9498024104059363, 1.6422782828586036, 0.5366534565007814, 53835000000, 
-4.136436148803641, 0.5371886858003957, 0.5434449995741829, 53840000000, 
-1.2829023294103483, 0.27611588276223176, 0.5499157241585174, 53845000000, 
-1.6288784417362376, 0.21656338564056338, 0.5558962909783182, 53850000000, 
-0.5208418144372867, -0.20103641087209437, 0.5626782297974949, 53855000000, 
6.175349963854427, -0.7434152933484193, 0.5723290335155652, 53860000000, 
-7.017143367965024, -0.007857324152834234, 0.5766932839551994, 53865000000, 
4.071134487548339, 1.805168917018754, 0.5842691358625285, 53871000000, 
-2.722093950482364, -1.2334343610675373, 0.5884804692859057, 53876000000, 
-1.8631723653560057, -1.5793274011036824, 0.5947442878132683, 53881000000, 
7.686388288381342, 2.6667806354084838, 0.6033576691488216, 53886000000, 
-6.648128440015726, -1.9273736176551712, 0.6058278680725568, 53891000000, 
2.7458066013105293, 2.34065073301844, 0.6137385977600198, 53896000000, 
0.9696176186538621, -0.29580016234223416, 0.6187500918116904, 53901000000, 
-0.37678271977726235, 1.1709486182277642, 0.6273378501461488, 53907000000, 
-6.877472236505149, -3.8350656087149737, 0.6298754291147054, 53912000000, 
6.064878493528764, 2.3942618352502354, 0.6369343803254959, 53917000000, 
-1.4104005048257773, -3.030981993476264, 0.6419730824108775, 53922000000, 
0.9053454610726349, 3.975826834478501, 0.6492263690631442, 53927000000, 
3.146102215590592, 1.1818469333786101, 0.6572482913042943, 53932000000, 
-7.105490280208361, -4.188224032455802, 0.6587268641877454, 53937000000, 
0.25927522933759867, -1.5898832320334704, 0.6644467870139067, 53942000000, 
0.11649366091050692, -0.5725175641781944, 0.6711314979324536, 53948000000, 
6.2801745603508055, 4.51839796373811, 0.6776276397265929, 53953000000, 
-1.851763218861378, -1.608307227782055, 0.681995439375197, 53958000000, 
-3.5851133243400923, -3.071649022900824, 0.6854345673564286, 53963000000, 
6.100493442659603, 4.396055814353969, 0.6950700913125806, 53969000000, 
-7.492221662966752, -1.368068579086597, 0.697237348883101, 53975000000, 
9.679299654321921, 4.696939777874285, 0.7044427401788795, 53980000000, 
2.351683886817197, 1.02256072167654, 0.7126907391944797, 53985000000, 
-3.1573596409086497, 0.3404298836077902, 0.7169488923372093, 53991000000, 
-0.9247170178108103, 0.2623277342653358, 0.7216022396516029, 53996000000, 
-0.21436139714198565, 0.25796243231951277, 0.7248675965149249, 54001000000, 
0.02734709133100826, 0.282827133129858, 0.7304464805717884, 54006000000, 
0.13425191446820303, 0.25689367583010164, 0.7341025879314589, 54012000000, 
0.35540499072970455, 0.13632373480559498, 0.7386921317314793, 54021000000, 
0.4687113564683947, 0.257614151016795, 0.743187255462281, 54032000000, 
0.4819571769031436, 0.36433973668825254, 0.7437309238527425, 54037000000, 
0.370948685318306, 0.3606944587103132, 0.7444640388852506, 54042000000, 
0.3097104252739882, 0.2691723447081169, 0.7447117355631008, 54047000000, 
0.2652849411221472, 0.2553378642190139, 0.7438799857775513, 54052000000, 
0.1977651552278028, 0.4339301015512143, 0.7443667562140298, 54057000000, 
0.2183804504779419, 0.4223596278547222, 0.7433834588287844, 54062000000, 
0.2860733904098155, 0.3451243125103957, 0.7429286492858543, 54067000000, 
0.2754064595159843, 0.38210281484025654, 0.7426962118521935, 54072000000, 
0.32321910150819955, 0.37264874634885453, 0.7421393410374174, 54077000000, 
0.2766491282401966, -0.6249783983642939, 0.7417496299730236, 54082000000, 
0.35563166168801774, -0.4155007183499099, 0.7414881748044102, 54087000000, 
0.569741628250717, 0.02232314271223102, 0.7415778950539356, 54093000000, 
0.3379212493394693, 0.41782685207566866, 0.7417198676986745, 54099000000, 
0.30744042757715184, 0.30079241973495935, 0.742310239477151, 54104000000, 
0.3600427087605193, 0.2894898851180023, 0.7438312963974674, 54109000000, 
0.4025317528306161, 0.2677613486735704, 0.7441543943310784, 54114000000, 
0.45208329481057374, 0.21828476918843903, 0.7459968982619821, 54120000000, 
0.45137672272342566, 0.223797320137764, 0.7471671613464309, 54125000000, 
0.438934253040954, 0.24166334694388136, 0.7477198875958353, 54131000000, 
0.4678565815118086, 0.23909201616221024, 0.7486712698134399, 54136000000, 
-0.1821159518252381, -0.0933646683199325, 0.7488269186933003, 54141000000, 
0.39427270960252053, 0.1935919041198267, 0.7483906159849144, 54146000000, 
0.4029234324074428, 0.24563798383827284, 0.7634718081202916, 54151000000, 
-14.083216377157827, -6.437622004514501, 0.7715043941662236, 54156000000, 
12.507638041995833, 6.164355579648265, 0.7774426877665179, 54162000000, 
-4.70972812094795, -2.3885320912935395, 0.782326305671935, 54169000000, 
3.262278183180053, 1.9737346373806641, 0.782347998106468, 54174000000, 
1.2432415954315734, 1.5869971240745424, 0.7935646929898148, 54180000000, 
-4.824610230199822, -2.380464022379958, 0.8026425719468598, 54187000000, 
2.139992845581937, 2.9945618715040223, 0.8014998063237366, 54192000000, 
4.75393911256263, 0.49118666136613415, 0.8125812732610306, 54197000000, 
4.5803912673813345, 2.9419829924072864, 0.824564955416617, 54203000000, 
-0.5844023928518282, -0.6339754809841734, 0.8614249181357874, 54209000000, 
0.8974541037177166, 0.5628130445047699, 0.8785391398529783, 54214000000, 
-5.1231492344019145, -5.314179545878338, 0.9012841921618704, 54219000000, 
6.696712251999356, 6.226873091023849, 0.9200930595275235, 54224000000, 
-4.894155135679195, -5.903300736359017, 0.9399667358294672, 54229000000, 
6.52050483394879, 6.871622277462157, 0.9571751842710383, 54234000000, 
0.737349016950705, 0.4326097287552277, 0.9769066067344434, 54240000000, 
0.7112457201559641, 0.4183738761159852, 0.9950848509906904, 54246000000, 
-4.224233392607926, -6.964617496842095, 1.0090246591299354, 54251000000, 
5.6322445955592695, 7.733259009472726, 1.0208924398295938, 54256000000, 
-3.825508025909151, -7.1914122537285285, 1.0327339346173616, 54261000000, 
0.9508686588057585, 0.24367214256805966, 1.036095218675453, 54266000000, 
0.9418722338755228, 0.2860782130469884, 1.0515006640314206, 54271000000, 
4.916720029324005, 8.074446017940764, 1.05984489694508, 54276000000, 
0.744418497909194, 0.4087685328105948, 1.0682637258985623, 54281000000, 
-5.646326073538323, -12.27345196002756, 1.07195136915295, 54286000000, 
0.7589429255731412, 1.0071594969357345, 1.0797087185980545, 54291000000, 
3.295601901757659, 6.041895211854755, 1.0895261973631134, 54297000000, 
-2.80465343160894, -6.034995940475551, 1.0956385634935057, 54302000000, 
6.381786135816282, 12.09561212066249, 1.099829330834751, 54307000000, 
0.6572494091881974, 0.8093385120490784, 1.106691402305608, 54313000000, 
-2.465371703638628, -5.175284662634169, 1.1125034970781988, 54318000000, 
0.8126003742806923, 1.1082142014910001, 1.118912551815449, 54323000000, 
3.628721022602055, 6.45815000216274, 1.12466552746495, 54328000000, 
-1.997435576970091, -4.1506336065915255, 1.1294274342783062, 54333000000, 
3.336139261809519, 5.859735958169084, 1.134087659354528, 54338000000, 
-1.6000243898673454, -3.5112415852337464, 1.1382576404027718, 54343000000, 
3.025940919800766, 5.037698123654112, 1.142381871961019, 54348000000, 
-1.111308669771567, -3.2091811251808475, 1.1455948169728185, 54353000000, 
1.0798784161149049, 0.7235547290780924, 1.149237625517872, 54358000000, 
-24.326768162560114, 17.89485125848149, 1.1352577295590178, 54363000000, 
1.0370023064445797, -0.6189237303256604, 1.1354150093359385, 54368000000, 
2.7879134425905328, -1.533395559013594, 1.1361103022613812, 54373000000, 
4.336717992147514, -2.404452513686902, 1.137108564774334, 54378000000, 
5.571612414512635, -3.1107165276416944, 1.138411853203496, 54383000000, 
-15.631196118903338, 17.677217262417955, 1.1226309557789267, 54388000000, 
2.2988834344835234, -1.3114988551418507, 1.1233503998541374, 54393000000, 
4.063953757767547, -2.340025847483125, 1.124229639374418, 54399000000, 
-4.139258735466078, 7.004357843694991, 1.1183514721277725, 54405000000, 
0.8633631016140907, -0.448739163121973, 1.1189326261595705, 54410000000, 
2.9990613032819153, -1.7559770140611184, 1.1198842864109941, 54415000000, 
-0.4663465519766643, 2.492460340951025, 1.1154300131048864, 54423000000, 
1.987639126393949, -1.190986543716359, 1.1160827083527927, 54428000000, 
3.7569154059319465, -2.291289206156847, 1.1171783045472026, 54434000000, 
-1.7858583464660733, 3.914505303384788, 1.1136034612169576, 54440000000, 
2.6742140076564795, -1.6968316950832878, 1.1141566191883125, 54445000000, 
-1.1021525892979787, 4.453543946772474, 1.1117938590704748, 54450000000, 
1.3359033078044784, -0.8282738980301111, 1.112395071724632, 54455000000, 
1.4422546357730992, 1.47339073020007, 1.1102955037103148, 54460000000, 
0.7455926531058655, -0.4686607132304494, 1.1105143546540808, 54465000000, 
2.410291597856873, -1.6010148446466994, 1.1110955514025955, 54470000000, 
0.3771219827606059, 2.048326205982274, 1.109369865836869, 54475000000, 
1.3786185396692845, 0.8183420701554666, 1.1086111025367, 54481000000, 
1.0123715628371306, -0.7030760745725853, 1.1089848907457873, 54486000000, 
1.4964771620876383, 1.1389353237387465, 1.1079915825168898, 54491000000, 
0.8352691454339376, -0.6041760814366447, 1.1080879707369218, 54496000000, 
1.7948973558737151, 1.2423105620732413, 1.1073164009910563, 54501000000, 
1.1886705487702085, -0.865861859091921, 1.1078054273081304, 54506000000, 
0.9467587232949012, 1.880969860051828, 1.1068759778416573, 54511000000, 
1.7939358482761716, 0.9918322542602617, 1.1062411478472682, 54517000000, 
1.0821901740448117, -0.7267888886979705, 1.10745046082774, 54522000000, 
1.1775140589565236, 1.442610894516057, 1.106269614514556, 54527000000, 
1.738484133753118, 1.068894254942602, 1.1054285986820982, 54532000000, 
1.4754688633118924, 0.5467627325807579, 1.1053730692397759, 54537000000, 
1.094783448747485, -0.8573948105236855, 1.1060642376911833, 54542000000, 
1.1800069083399314, 1.8011239237650192, 1.1054431006529328, 54547000000, 
1.6627216836790553, 0.9239699997219529, 1.10496893066721, 54552000000, 
1.4183211930309438, 0.49866474765868457, 1.105036177501467, 54557000000, 
1.6159961273055437, 0.5586141852658498, 1.1048831432692081, 54562000000, 
0.9816439656698002, -0.7473782874047932, 1.1054645215949641, 54567000000, 
1.3739939985347358, 0.7656524719440075, 1.1047874512583211, 54572000000, 
1.4661586858301021, 0.8687073808511124, 1.1046849868165034, 54577000000, 
1.5190146867789789, 0.7588681310534753, 1.1050776157804598, 54582000000, 
1.5614798842438913, 0.6986237381921266, 1.10486452253506, 54587000000, 
1.6748752228532415, 0.6372428503574459, 1.1041940236562864, 54592000000, 
1.027656182880447, -0.901211328198453, 1.1049128566815762, 54597000000, 
1.411941248827984, 0.843659670437605, 1.1044497034461473, 54602000000, 
1.497811365242894, 0.1849247898431459, 1.1046814262422544, 54608000000, 
1.4182255724974353, 1.3892455458786017, 1.1037572616904212, 54613000000, 
1.581513549928755, 0.7589087913103716, 1.103741128496973, 54618000000, 
1.6307941023474555, 0.7089709140191315, 1.10341036742283, 54623000000, 
1.7226553526500077, 0.6570887997253398, 1.103220572720077, 54628000000, 
1.0597098615977951, -0.9949313385333718, 1.1038053091714641, 54633000000, 
1.4689024925213041, 0.8412508555555777, 1.1036446274306748, 54638000000, 
1.5386596633263494, 0.7826872025228614, 1.1031515892945327, 54643000000, 
1.6045526902039764, 0.7403888023472773, 1.1033060327141775, 54648000000, 
1.6398401016374182, 0.7217038505543085, 1.1027463934026351, 54653000000, 
1.544675843586084, 0.5719920597625714, 1.1023935679478993, 54658000000, 
1.335758380284386, 0.4005797062642359, 1.1027742936251081, 54663000000, 
1.8326170594328552, 0.5613186188230485, 1.1023535953795078, 54668000000, 
1.0980422652801107, -1.1314619677624986, 1.102750917689436, 54673000000, 
1.5192781121469445, 1.2389293617588841, 1.1022556240215136, 54678000000, 
1.7065440676313293, 1.0221291847814735, 1.1020138930380816, 54683000000, 
1.490540712846091, -1.5289160333437768, 1.1026747508509531, 54688000000, 
1.365143312272437, 1.199222042239812, 1.1016504045189304, 54693000000, 
1.6472976243103779, 1.3314530271256577, 1.1011499706867574, 54698000000, 
1.6004939466218473, -1.7010534675728637, 1.1014189668720116, 54703000000, 
1.4668877967942247, 0.7665931732571349, 1.100573495831505, 54708000000, 
1.974683409874342, 2.498754084869895, 1.0997818550075875, 54713000000, 
1.2188824373952905, -1.2965749478546682, 1.1006097091122977, 54718000000, 
1.7376607812296334, 1.8901656531217272, 1.0992667821717192, 54723000000, 
1.512251994117498, -1.7013923536906974, 1.0995412831467306, 54728000000, 
1.6124388211683869, 2.4538829809284834, 1.097925026607834, 54733000000, 
1.495511548153717, -1.7106962244974933, 1.0990694815591235, 54738000000, 
1.4459520976154903, 2.3457731520333276, 1.0967448865100329, 54743000000, 
1.520501064491879, -1.7945405484642674, 1.097814471429695, 54748000000, 
2.487131118855654, -2.994843117441713, 1.09864842604978, 54753000000, 
1.1071531468925815, 2.06572621205097, 1.0968668593774638, 54758000000, 
2.6437065687799652, -3.2695151768676984, 1.0982766072742862, 54763000000, 
0.3840127532713994, 4.963729618101498, 1.0957039670640076, 54768000000, 
2.196583204195649, -2.754111591796979, 1.0963798854938704, 54773000000, 
1.096705954365735, 2.8038406038623807, 1.0936135615154174, 54779000000, 
1.8314634501857143, -2.3533168077226985, 1.094445068923238, 54784000000, 
2.8104615397376342, -3.65959938817119, 1.0957861928973973, 54789000000, 
0.11680527538478866, 6.73260479580254, 1.0909343328677035, 54794000000, 
1.7014939430394511, -2.3094509059325437, 1.092087801207499, 54799000000, 
2.744003289255252, -3.729521178130429, 1.093608414582008, 54804000000, 
0.2632696849070795, 7.148657578441112, 1.0881713640429655, 54809000000, 
1.4342563822061916, -2.0101719660969595, 1.08966260323879, 54814000000, 
2.581747946433171, -3.692309454891649, 1.0915076139158622, 54819000000, 
3.4850788282192178, -4.932488930494785, 1.0924635258680777, 54824000000, 
-1.416166194213183, 10.583142011843263, 1.0854784488120166, 54829000000, 
1.8933543630385403, -2.761977463980779, 1.0866936239379663, 54834000000, 
2.802555928794359, -4.180836364226101, 1.088898939201097, 54839000000, 
3.6790038568830523, -5.460971274627352, 1.091314412315661, 54844000000, 
-3.703396214033287, 18.314506200524903, 1.081641122324793, 54849000000, 
1.6377429667065246, -2.516907365254788, 1.0826939761850811, 54854000000, 
2.5655401272631138, -3.9919340042590434, 1.0845288209708086, 54859000000, 
3.3454813070704055, -5.248663770421368, 1.0862427676895772, 54864000000, 
4.005374504634711, -6.336618065310491, 1.0891735109843503, 54869000000, 
-3.12085306074981, 14.996658548159822, 1.0771745750252426, 54875000000, 
2.0148800731039036, -3.222978696578664, 1.0785363954605804, 54880000000, 
2.809627552799626, -4.6227269161284354, 1.0799578080434815, 54885000000, 
3.506574790848975, -5.8568013656170725, 1.0819684505174125, 54890000000, 
4.023422148633507, -6.848491291203683, 1.085120700835187, 54895000000, 
-4.54333320846117, 22.50035605929307, 1.0691602872638812, 54900000000, 
1.1359480339006882, -1.9503415786117309, 1.070273274154727, 54905000000, 
2.083116473235547, -3.656814455895452, 1.0714376393483505, 54910000000, 
2.812836598834209, -5.052357542428364, 1.0736322326833265, 54915000000, 
3.402589573511569, -6.213865124802563, 1.0759958169884511, 54920000000, 
2.8846074105706334, -6.858415434836007, 1.07899491454954, 54925000000, 
-2.3915472646527762, -5.351255711443771, 1.0808938275949858, 54930000000, 
-0.658156546693769, 20.80712147221218, 1.066299216900856, 54936000000, 
1.5644966947604335, -3.021908826354296, 1.0674375259974915, 54941000000, 
2.114267558346584, -4.42474072057162, 1.0691999991289558, 54947000000, 
0.941958225743122, -4.967742644453353, 1.0712062023535311, 54952000000, 
-0.7154088045953678, -4.894626436559671, 1.0728431043881805, 54957000000, 
-0.3180157433563041, -0.759285574176936, 1.0731925248771115, 54962000000, 
1.0403745951415857, 3.219732460265746, 1.0717126109617627, 54967000000, 
1.7296093079115198, 3.958296549694034, 1.0705436838530127, 54974000000, 
1.8321528719397433, 2.6352719105656432, 1.0692428729514099, 54979000000, 
3.8161796613880266, 6.354133567828351, 1.0668503753087037, 54984000000, 
1.6875861080521322, -3.8218272209339292, 1.068370030657824, 54989000000, 
1.9318344434114278, -4.72481585436335, 1.0705652074282996, 54994000000, 
0.9248230509788805, -2.208373798790001, 1.0711820175330653, 54999000000, 
0.15931492875286282, 0.35787879573398085, 1.0709030647935698, 55004000000, 
-0.018264929640551986, 1.700330103571151, 1.0705936349120744, 55009000000, 
0.18495642720450178, 1.774566021051697, 1.0699389002925517, 55014000000, 
0.5797879365511751, 1.1245851908961946, 1.069057080537591, 55019000000, 
0.9024915658723327, 0.27931605386539987, 1.0688202399675186, 55024000000, 
33.04014714306785, 6.553492546257688, 1.0523934037501421, 55029000000, 
-1.8959624477673267, -0.6026129491446727, 1.052869149784623, 55034000000, 
-3.4747093738848815, -1.1151435099447906, 1.0535169719270887, 55039000000, 
-4.793073993020144, -1.5213715168141608, 1.0538708472486804, 55044000000, 
-5.900188997364127, -1.851851205028519, 1.0549898513556089, 55049000000, 
-6.863864497422516, -2.140293709684806, 1.0556811540776039, 55054000000, 
-7.698719033387681, -2.317544823189213, 1.0563071221644054, 55059000000, 
-8.383723759793074, -2.474725640529036, 1.0579667999499112, 55064000000, 
-1.9798485126700003, -1.3339827442061172, 1.0579018782320775, 55069000000, 
6.7091281960887335, 1.2192170664236417, 1.057636858199817, 55074000000, 
36.52553025734144, 8.526372396946654, 1.0344209084588805, 55079000000, 
-3.05119747624517, -0.8335734458986295, 1.0350087197519613, 55084000000, 
-4.512320321565736, -1.1695323898246355, 1.0353694540353207, 55089000000, 
-5.700813706830596, -1.4667256559735316, 1.0360158852603265, 55094000000, 
-6.747607545578863, -1.7514132008579784, 1.0366346369940016, 55099000000, 
-7.650874122917632, -1.8942659610674144, 1.0374468964680992, 55104000000, 
-6.94102018572845, -2.723189707412197, 1.0385329861917254, 55109000000, 
49.21866285707755, -8.136772189625962, 0.9954977358508736, 55116000000, 
-0.6677686262847632, 0.1236907019560844, 0.9934954147470393, 55121000000, 
0.07653083503580929, -0.2705775230919498, 0.9913812457665313, 55126000000, 
-1.8927958423804994, 0.3807339175551693, 0.9891703164812004, 55131000000, 
-3.2477503303373676, 1.0234346781517454, 0.9887018211254186, 55136000000, 
-0.49963671303973767, 0.3157586572290307, 0.9872674033033655, 55141000000, 
0.4057831826690445, 0.09905195675949718, 0.9849830219640113, 55146000000, 
0.6994235238148097, -0.012952722551675015, 0.9824722479550617, 55151000000, 
4.591104482137429, -0.8540405488539459, 0.9787473137099824, 55156000000, 
7.85740737422543, -1.4780708160183706, 0.9726782856330111, 55161000000, 
3.056173143332619, 0.43376212072579606, 0.9698405336226421, 55166000000, 
1.3104988289034183, 0.875989419409641, 0.9670915613256361, 55171000000, 
1.131668017339404, 0.610439597706867, 0.9644396446136784, 55176000000, 
0.7499620530379572, 0.7935291121422744, 0.9626880991847221, 55181000000, 
0.8588126265058572, 0.6743106133008536, 0.9605778044943634, 55186000000, 
0.7037931318181797, 0.7354160351666735, 0.9582554318340251, 55191000000, 
0.11913635184629982, -0.07791037093107339, 0.9558899345254843, 55196000000, 
0.3835615729970543, -0.1261561955856001, 0.9538150081129577, 55201000000, 
-2.025469463891408, -0.42598059134718863, 0.94422227333743, 55206000000, 
3.6050611319059445, -0.2922535861399667, 0.918171614964976, 55211000000, 
-12.328452656422572, -2.4643381280430576, 0.9018049009362905, 55216000000, 
-16.342147336770758, -2.145620435418304, 0.8934696878263239, 55221000000, 
-11.749616703595828, -1.5298139069103622, 0.8876156581926798, 55226000000, 
-8.39318496200074, -1.0226520928331413, 0.8827349002609685, 55231000000, 
-5.951175645805959, -0.7117889521874328, 0.8800384675248372, 55236000000, 
-4.100114121158885, -0.4616295699647772, 0.8772998170263638, 55241000000, 
-2.9206183531269474, -0.3380773150431015, 0.8760281009772798, 55246000000, 
-2.1297052163890218, -0.21442409242929417, 0.8751760639931728, 55251000000, 
-1.5320401712800857, -0.13663154150919846, 0.8746996871110212, 55256000000, 
45.71460548770224, 5.122459077346497, 0.8336092750248135, 55261000000, 
13.367701808519197, 0.40897260458647744, 0.8040347697374, 55266000000, 
-9.523243302618372, -1.4053634301279394, 0.7882875283507407, 55271000000, 
-4.250960194651635, -0.6284538789350165, 0.7729776515265775, 55276000000, 
-11.981567383205803, -1.0291253440876493, 0.7633134657682042, 55281000000, 
-10.715438824520234, -0.8164765966044651, 0.7579065612241307, 55286000000, 
-7.404412714105814, -0.48206351827921523, 0.754001915284948, 55291000000, 
-5.254711592408011, -0.3003129409120223, 0.7520004640367218, 55296000000, 
-3.9892011498503965, -0.23817670822862855, 0.749914728145004, 55301000000, 
-2.8101041791481465, -0.13659472670649556, 0.7483316286033582, 55306000000, 
-1.8672669250305736, -0.08776338100392578, 0.7475277429936906, 55311000000, 
-1.3401220632383133, -0.10944610983655893, 0.747258699095134, 55316000000, 
27.063001057105645, 1.2586181556726252, 0.7262066191530087, 55321000000, 
28.111024727837325, 1.7130884218088627, 0.6945558331421191, 55326000000, 
0.6732428022470266, 0.47621891022413465, 0.6747008812488144, 55331000000, 
6.811619651912636, -0.3280705268144526, 0.6512701173844639, 55336000000, 
-12.664380933087518, -1.1137937847254422, 0.6350039561675807, 55342000000, 
-7.179469318013577, -1.4507954085091215, 0.6253677070969295, 55347000000, 
-11.661265826660486, -0.38905948740100493, 0.6203567414187765, 55352000000, 
-8.033499014421889, -0.201026392845067, 0.6151424809242362, 55357000000, 
-5.710014144237085, -0.11766075737022093, 0.6132378368296005, 55362000000, 
-4.193749560923097, -0.052456931172180095, 0.6109498899781517, 55367000000, 
-2.9696043175193205, -0.021025061266051706, 0.6094481993554416, 55372000000, 
-2.0276074782626523, 0.0008390150980265786, 0.6082861682954671, 55377000000, 
-1.3937049363367757, -0.011887594224045537, 0.6078505020218335, 55382000000, 
15.328357871906977, -0.4542344717564344, 0.5978234995488938, 55387000000, 
36.13126451267687, -0.5304721852436095, 0.5654832881814054, 55392000000, 
0.6154728692494401, 0.4355966848081247, 0.5479340695291801, 55397000000, 
5.153890921779371, -0.5187762412334923, 0.5277264876934558, 55402000000, 
-3.077341559700809, 0.6788852120582564, 0.5099647548102073, 55407000000, 
-12.7475232496484, -2.002602270788667, 0.5009821211983381, 55412000000, 
-6.254765418244612, -1.2850585346903602, 0.49108729266337775, 55417000000, 
-9.813849298052801, 0.06176191240380215, 0.48528451202680783, 55423000000, 
-6.7618431376177215, 0.057345157365873624, 0.4819742187088106, 55428000000, 
-4.788641551155947, 0.11111500710820366, 0.48004734929989185, 55433000000, 
-3.4388403112804524, 0.07384245116674983, 0.47803409273787634, 55438000000, 
-2.4216216680712126, 0.04707706426181232, 0.47723579905893143, 55443000000, 
-1.6802894887068265, 0.034894710731115705, 0.47636846321336473, 55449000000, 
28.57273323778502, -1.6451099146760824, 0.44470279509162897, 55454000000, 
9.252196443354851, -0.016031159793987775, 0.42787257139394175, 55459000000, 
0.2256500366596546, 0.13278463851212977, 0.41127707907120997, 55464000000, 
4.993919540062184, -1.318734468581819, 0.39189567700274236, 55469000000, 
-8.10449902514328, -1.1882673159145938, 0.3784185930614453, 55474000000, 
-10.022549252234723, -0.9315232646801529, 0.3681765747493179, 55480000000, 
-8.883197280409336, 0.14320373259954036, 0.3601752815426535, 55487000000, 
-6.914483403463228, 0.20317288832113076, 0.3588014977540046, 55492000000, 
-5.12061002126682, 0.19510123834050816, 0.35480763466413195, 55497000000, 
-3.4717764815521712, 0.13218794859653105, 0.35368853108022147, 55502000000, 
-2.468347369274837, 0.09340378343458194, 0.3524051896104922, 55507000000, 
-1.6817227642462942, 0.10147859345733283, 0.35145102190586924, 55513000000, 
31.874673049522166, -2.2948512370582717, 0.3198209982598765, 55518000000, 
5.615266766047601, -0.2765902148520553, 0.3019836404684635, 55523000000, 
1.1756817467371428, -0.8370443121399994, 0.28257856242334434, 55528000000, 
3.618612415176679, -1.4401247038737115, 0.26830232413242605, 55533000000, 
-11.519360022445863, -0.9713136860115568, 0.25852010329469816, 55538000000, 
-9.14442601934154, -0.7613748318827701, 0.2514906136030668, 55543000000, 
-4.921646802101241, -0.3831799440910422, 0.24319939770358903, 55548000000, 
-7.9398454856000305, 0.3292839125277204, 0.23988681611166413, 55553000000, 
-5.632509725238131, 0.2653632470267056, 0.23675583836462252, 55559000000, 
-3.89274654619555, 0.2148573491030756, 0.23451935051036926, 55564000000, 
-2.651689440238424, 0.14438558586735112, 0.233508626316006, 55569000000, 
25.8705440991434, -2.5032739135145703, 0.21344461342614302, 55574000000, 
10.727341847397126, -0.6525964243602731, 0.19471531391154048, 55579000000, 
2.694645625323393, -0.5721221557021432, 0.1783455376556077, 55584000000, 
1.4948947379590596, -0.8167434215440427, 0.16196496642117233, 55589000000, 
-13.561910565142435, 0.6241486480110383, 0.15548279330675643, 55594000000, 
-6.929287582563508, -1.8391491387786876, 0.1494156832783117, 55599000000, 
-2.509771152602304, -1.1503398578933548, 0.1420639859065039, 55604000000, 
-1.079391786783049, -0.7915884700648371, 0.13397226295241504, 55610000000, 
-0.5606959292497679, -0.6355220437324514, 0.1241067209324954, 55615000000, 
1.6376123261374969, -2.4670908342902864, 0.114148795982258, 55620000000, 
-2.932103799882437, 1.085044575567615, 0.10560581950198157, 55626000000, 
6.840725965457105, -6.286952982587085, 0.09590988181845915, 55631000000, 
-4.226170535344865, 3.341107222002729, 0.0890989641379278, 55636000000, 
2.233137292765442, -2.714816559163208, 0.07960212426437527, 55641000000, 
-3.8909417169307834, 0.13434103829392924, 0.07214440899280736, 55646000000, 
-1.8026311217233366, 0.5561181422157319, 0.06739781963965717, 55651000000, 
2.6558116638043243, -3.8318576201093424, 0.05213367289301208, 55656000000, 
-8.63568989282638, 3.667474498406748, 0.04965463338225615, 55661000000, 
1.8489006022340737, 0.6765752640035086, 0.0424323311451174, 55666000000, 
4.064809659605453, -2.083549083719539, 0.03185192178541466, 55671000000, 
-2.6755680625715046, -0.4420326295905476, 0.025097834195347706, 55676000000, 
11.210044819454739, -1.2766286649101337, 0.009031507965296809, 55681000000, 
7.159937621718034, -0.5161533338968077, -0.0071311134490610545, 55686000000, 
-9.911601005227071, -2.629568885914038, -0.014983661630573897, 55692000000, 
-6.845869069597196, 0.33625696746042905, -0.02196771122104814, 55697000000, 
-2.3546443920276876, -0.28369668927296643, -0.028161140604319127, 55702000000, 
-1.1095377376253264, -0.5278543703656455, -0.03196673639883101, 55707000000, 
1.6395772722144228, -2.1182323839762423, -0.04823251061969243, 55714000000, 
-1.9291213495147537, -0.3712810541047368, -0.058098050226670556, 55720000000, 
0.990556698518569, -2.237687307173219, -0.06739146724092762, 55725000000, 
0.3549312275079409, 0.19932396584535325, -0.07334321605592009, 55730000000, 
1.4828582298019921, 1.033434782464573, -0.0844707173316524, 55735000000, 
-2.0864297420867857, -0.6995621525034544, -0.09552920966035784, 55742000000, 
-1.8623820091050844, -1.3485682606189533, -0.10040599452058468, 55747000000, 
6.905575412968274, -1.0752403666804604, -0.1118987227025515, 55752000000, 
8.23534923582841, -1.4771835517227982, -0.1209635630878198, 55757000000, 
3.9906769485014673, -0.9530659411749401, -0.138519438038673, 55763000000, 
-12.220228296956716, -2.1853758952859246, -0.14415295776527273, 55768000000, 
-4.953303724295118, 0.2502484480251394, -0.14612016178640322, 55773000000, 
-0.9202410071490172, -1.314609900242962, -0.15616214670085662, 55778000000, 
-2.2287878471711915, 1.9901416527778077, -0.16056301185938984, 55784000000, 
6.337468460148438, -1.782154972530106, -0.17648033182465417, 55789000000, 
-4.590274119962468, 0.9313496784633595, -0.18227956867340045, 55795000000, 
5.770612987099558, -2.477897968589192, -0.20412680530959781, 55802000000, 
2.917915898036008, -0.9268823371502277, -0.21771871574464002, 55808000000, 
-9.420389345286232, -2.7014350584762683, -0.22550276018970544, 55814000000, 
-6.154521044712686, 0.2682756413152108, -0.23002288939951077, 55819000000, 
-5.286343703092027, 1.112887888926505, -0.23223382766445025, 55824000000, 
6.803347114594901, -2.3371235710700535, -0.24142827201506262, 55829000000, 
3.786767071995556, -2.2119825135565185, -0.2619668715618209, 55838000000, 
1.637028958766589, -2.112397677349531, -0.28098390141870594, 55845000000, 
-9.803437666095357, -0.08073361361722757, -0.284879453498901, 55850000000, 
-6.0087946288040595, 0.4655059717475394, -0.288533481397411, 55855000000, 
-0.8739611646040609, 1.1189385280789264, -0.29229940020757744, 55860000000, 
7.503873301532454, -4.797783030738344, -0.30380833032950816, 55865000000, 
2.2089537824006302, -2.0306873259519667, -0.3273740749080874, 55875000000, 
-0.6908126070389176, 0.2240244129142828, -0.34596426336506697, 55884000000, 
-9.200128149948256, 0.762044444569162, -0.34813748441461856, 55889000000, 
-1.2456586917228087, -1.6770536186380907, -0.3540531312432028, 55894000000, 
4.1421585721530505, -2.1623045638223797, -0.3606705659933403, 55900000000, 
3.4338154621398913, -4.218884035197701, -0.37325390000719494, 55905000000, 
1.0399186461306784, -2.381421819554788, -0.38394973487167255, 55910000000, 
0.2827480342091205, -1.8584339816790727, -0.3943468793310236, 55915000000, 
0.053615862334842716, -1.9195188520450186, -0.40555712983277625, 55920000000, 
-2.4538044180637093, -1.3346503375167034, -0.4145896027079467, 55925000000, 
-8.017462608049808, 1.70778327836997, -0.41764109009060507, 55930000000, 
-1.2190457394282876, -0.32262110581531306, -0.4224929985424924, 55935000000, 
2.958556566584619, -3.3309206715877666, -0.42979031363629316, 55940000000, 
2.2890490157440406, -4.50540071842916, -0.4397624519352171, 55945000000, 
0.47782250299077944, -2.8367364126796213, -0.4494307381385047, 55950000000, 
-0.18282996988125677, -2.384227255413447, -0.45912458784226323, 55955000000, 
-0.39461507655641737, -2.394146597438775, -0.4678212303545235, 55961000000, 
0.5828302196158062, -1.4678636233850237, -0.4760964334952971, 55966000000, 
-5.1633115130315135, 4.390418641605784, -0.4755134713377203, 55971000000, 
-3.1634594638238815, 1.4945987921733315, -0.47326888932491845, 55976000000, 
3.7029551910408376, -5.9648047709769205, -0.47430011803624605, 55981000000, 
1.7491490874943527, -4.206319758125449, -0.47389733911350745, 55987000000, 
0.0036870682426872886, -2.773961991176332, -0.472637685920324, 55992000000, 
-0.15055205854013964, -2.5434158761138512, -0.4705976161039164, 55997000000, 
-0.10571749732840044, -2.4397273810570246, -0.46900926592515113, 56003000000, 
-0.03579774678218123, -2.456120664313524, -0.46699670977405167, 56008000000, 
-0.05361182940936169, -2.4998676224752447, -0.46586561432360685, 56013000000, 
-2.956575614898712, 5.188737193310893, -0.46250004857629773, 56018000000, 
-1.9149742693558007, 1.695589590309536, -0.4600976593209111, 56023000000, 
-0.3222710835906044, -3.3907729279905183, -0.4590564850393959, 56028000000, 
3.7733440875982223, -6.245505207470486, -0.46020510182111657, 56033000000, 
0.977405875596664, -3.6391594155233986, -0.4595132358642323, 56038000000, 
0.06273876918256867, -2.818604590282202, -0.45770626722670205, 56043000000, 
-0.007708484590350253, -2.6521672523086353, -0.45680954697357645, 56048000000, 
0.09137288685511037, -2.6607485266860897, -0.4554633546083113, 56054000000, 
0.11793040637303186, -2.6981855765692657, -0.4536811043128703, 56059000000, 
0.13603027845480523, -2.6048046553532176, -0.45230133795947813, 56064000000, 
0.17053568474568975, -2.609353390665173, -0.4506416691311136, 56069000000, 
-3.1718869399756775, 9.050648628496994, -0.4473561603900097, 56074000000, 
-1.0348023343519983, 2.816433484883794, -0.44632377167270815, 56079000000, 
0.13159861104663514, -4.513902002976727, -0.4457745184549008, 56084000000, 
3.1360022206957234, -6.0189674772972435, -0.4468983611234343, 56091000000, 
0.7101436397202865, -3.6028542584706176, -0.4462416981618914, 56096000000, 
0.18501468493911977, -2.9498830281443036, -0.4442368274092105, 56102000000, 
0.1980386042288864, -2.8603572657348324, -0.443016907783124, 56108000000, 
0.27945194113089616, -2.8668712053854652, -0.44158023034203053, 56113000000, 
0.2978921413215174, -2.8216303373583678, -0.4401634286868164, 56120000000, 
0.3108574673241362, -2.822634048988362, -0.4384727975369143, 56125000000, 
-5.222170016069719, 1.8016164388859768, -0.4362748970623856, 56130000000, 
-1.4157127040428463, 8.476946881013873, -0.43394738210692546, 56135000000, 
2.9044654046223597, -4.3541898155925125, -0.4344767840874345, 56140000000, 
3.5256598294741006, -8.267548603563222, -0.43616655384057684, 56145000000, 
1.3602975455410693, -5.280119680364949, -0.43594369331795657, 56150000000, 
0.44334642413589315, -3.777461310550629, -0.4347817481210651, 56155000000, 
0.26886669438076655, -3.1270411566376572, -0.4331109320704535, 56160000000, 
0.2926193430964791, -3.074122393032257, -0.4331725217567259, 56165000000, 
0.39755909472967677, -3.104691742324991, -0.4306073520858612, 56171000000, 
0.4095705980066205, -3.0993003930742686, -0.43041615198366834, 56176000000, 
-8.30134243731082, 7.468789150596491, -0.4340858939058542, 56181000000, 
8.758854767511945, -11.360214603358306, -0.4527350764006227, 56186000000, 
-7.069397267240437, 7.014773947834848, -0.4774716797488294, 56191000000, 
1.8886822041152782, -2.894218818114868, -0.5071286501337873, 56196000000, 
0.3108826900636353, -1.4226229377588244, -0.550191333947429, 56201000000, 
1.1721213841694, -2.0808636884928786, -0.5797082663454057, 56206000000, 
12.259757420905817, -17.12517040959153, -0.6142823282668396, 56211000000, 
-9.923120399419597, 12.85845005632147, -0.6496347261499248, 56216000000, 
11.243625673820963, -18.317185877533817, -0.6795018272753192, 56221000000, 
-8.996633467744783, 13.79632657271342, -0.7057903543607996, 56226000000, 
9.30849167005111, -18.65584458401532, -0.7274732388031445, 56231000000, 
-7.190132289017396, 13.980801883863853, -0.7432710866918353, 56236000000, 
7.080541431420889, -18.147087115542334, -0.7563467409929051, 56243000000, 
-3.361618830695252, 8.59247906049304, -0.7631517666456008, 56248000000, 
4.402907011867299, -16.20620171563263, -0.7659431168220238, 56253000000, 
0.3171245155443169, -1.7243514633536332, -0.761498478932714, 56259000000, 
0.486610670289624, -5.837448665991663, -0.7524663780366878, 56265000000, 
-0.7245946524964504, 4.0808918842266815, -0.7454001220588254, 56271000000, 
0.8081753567137852, -4.757162922394854, -0.7428535434601367, 56276000000, 
0.22923964082225592, 0.6655756298989015, -0.7429038069712435, 56282000000, 
-21.669212308603182, -18.464186022648477, -0.7281809419911102, 56287000000, 
19.698383018864757, 6.9554370213529575, -0.7433470054839548, 56295000000, 
-5.477460193362895, -1.729468650722257, -0.740829671255736, 56303000000, 
-0.16171428705125296, -8.14123459925012, -0.7330326311856475, 56308000000, 
9.038698185569052, 10.593490652763084, -0.7374724792045642, 56313000000, 
-24.854666328536354, -22.240906503530358, -0.7161043139070153, 56318000000, 
16.54764577228452, 1.4570305663606176, -0.722695327766208, 56323000000, 
-5.108357440088367, -2.3597806591066814, -0.713187640363706, 56328000000, 
5.562175300091052, -0.7249058237399373, -0.7160642506762617, 56333000000, 
-1.498164084317933, -2.3563674170729016, -0.7115931319621481, 56340000000, 
-1.6507972321018232, -10.749571274395047, -0.7075272221717829, 56345000000, 
-3.2060944767513715, -10.38304055175193, -0.70220495372283, 56350000000, 
0.9100495830836783, -2.14529426220662, -0.7011912904419623, 56355000000, 
1.7875371067728856, -4.40550663557938, -0.6998740914935571, 56362000000, 
1.2548293348852997, -2.8795928358253344, -0.6978789225904616, 56369000000, 
1.281175208158261, -2.827360691162738, -0.6967058393860325, 56375000000, 
1.6941854067266378, -3.7128878188763683, -0.6950055063517155, 56380000000, 
1.7627589530175278, -3.821504430877594, -0.6933220412790905, 56387000000, 
1.0498137354642936, -2.2741630690455237, -0.6930238395535151, 56392000000, 
1.557265947241827, -3.205743162566306, -0.6915525829880687, 56397000000, 
1.6296360229894955, -3.4370355370829144, -0.6903105882578897, 56404000000, 
1.808566077656793, -3.7367260988062907, -0.6866922716657161, 56415000000, 
0.8176971768951141, -1.7723117690587835, -0.6861284191041466, 56420000000, 
1.866869468295941, -3.8529329724380084, -0.6847936887831263, 56425000000, 
1.7634847012219577, -3.5896320533085553, -0.6837511297836185, 56430000000, 
1.9952437991299456, -4.000442216154458, -0.6826228540931989, 56435000000, 
1.8242993312646534, -3.660947415144564, -0.6816069012150069, 56440000000, 
1.692436958478276, -3.4199799720991635, -0.680441876442093, 56445000000, 
1.8539554481180287, -3.7117658523658092, -0.6794813783130381, 56450000000, 
1.7765111877943225, -3.4766476649899265, -0.6778294823947466, 56455000000, 
1.9343420136068148, -3.7484406457072024, -0.6766274685680856, 56460000000, 
2.5034937794399568, -4.828036312766051, -0.6756159006457072, 56465000000, 
1.5623349756112666, -3.049855390772568, -0.674120158635277, 56470000000, 
1.880340258521706, -3.6358116717833555, -0.6726896402817734, 56475000000, 
1.9929371308109511, -3.8678580964029474, -0.6721101995600192, 56480000000, 
2.1631964743135, -4.110170920245246, -0.670582470416987, 56486000000, 
2.0743967514897967, -3.9373640406157335, -0.6680536663241513, 56492000000, 
2.3695865890416306, -4.541521109032545, -0.666752874196945, 56497000000, 
2.132369960858155, -4.013022565189118, -0.6662493843477826, 56502000000, 
2.239639571100425, -4.215009628924174, -0.6645008885513934, 56510000000, 
1.7769446560146631, -3.334218770144894, -0.6629183494363655, 56515000000, 
2.169199518199456, -4.072672711869798, -0.6617289954870449, 56520000000, 
2.2982939873313266, -4.259375362942648, -0.6596063594766466, 56525000000, 
2.2303233652833674, -4.118163827041452, -0.6591304282978908, 56530000000, 
2.5873981263125962, -4.784765689714502, -0.6574305500608153, 56535000000, 
2.3665798277495163, -4.3371404537495355, -0.6561063327114529, 56541000000, 
1.9287041768179314, -3.5013727265188557, -0.654443992314158, 56548000000, 
2.8648608525044916, -5.21793167030547, -0.6529024196670005, 56553000000, 
1.9615010872643845, -3.539518564535941, -0.6512828222575175, 56559000000, 
2.911864397302527, -5.260597155365665, -0.6498151324771804, 56564000000, 
1.9255163781721272, -3.449162599527887, -0.6484107316911075, 56569000000, 
4.476950643977586, -8.034963280131857, -0.6484245399195562, 56576000000, 
2.2725539506402663, -4.02858949044149, -0.6454616399430307, 56581000000, 
4.595944993494752, -8.13290742056688, -0.6450887783523972, 56586000000, 
2.483770034493208, -4.3935674116438515, -0.6426820942982142, 56591000000, 
2.5592661363609417, -4.486322578764273, -0.6412220391667547, 56598000000, 
2.0260221318710525, -3.5705286424774525, -0.6402348831039024, 56603000000, 
2.9419907177702176, -5.111531663211315, -0.6379300722449558, 56608000000, 
1.6407687425358763, -2.8270841598689542, -0.6372621187994695, 56613000000, 
2.9240001422486603, -5.030873938574196, -0.6344956796568638, 56620000000, 
2.1091523419561544, -3.6687305375363883, -0.6337988428057452, 56625000000, 
5.040195880136517, -8.629150939883957, -0.6332545882744993, 56630000000, 
2.4579301295835214, -4.195731895088678, -0.6302835995311573, 56636000000, 
2.682345524788506, -4.593957923270418, -0.6297814961510125, 56641000000, 
3.1902216769255465, -5.471004957561234, -0.6275316352689139, 56648000000, 
2.3788787173729617, -4.027899808794586, -0.625823955495235, 56653000000, 
3.265565923288085, -5.527576294946907, -0.6243489014601055, 56658000000, 
2.2054798857276934, -3.7711977517750195, -0.6231149916429527, 56663000000, 
2.816560190066653, -4.713190354547048, -0.6212978362129465, 56670000000, 
2.8350781270281042, -4.7807485887640455, -0.6195108221996765, 56676000000, 
2.7702679337266534, -4.630766213495795, -0.618650356051726, 56681000000, 
2.8942053902954905, -4.822651792583731, -0.6171381693861689, 56687000000, 
3.2889885157145113, -5.475304673608002, -0.6149041182333999, 56692000000, 
2.3226410787230107, -3.8703560932061882, -0.613916178476179, 56697000000, 
2.9116438414899366, -4.853780950401237, -0.611474968839834, 56704000000, 
2.9139832953100955, -4.817151121321645, -0.6101374859000753, 56709000000, 
2.9809341582399327, -4.8438819200448515, -0.6090984369591537, 56716000000, 
2.9504744765854345, -4.8350374363767346, -0.606777121493807, 56721000000, 
3.563424426121305, -5.797442643943156, -0.6053153799115705, 56726000000, 
2.4123686630528565, -3.94199604578499, -0.6040466407609171, 56731000000, 
3.047370255747384, -4.9732179530479845, -0.6018624853338185, 56740000000, 
3.6793056643119275, -5.966715195764328, -0.6007685573060242, 56745000000, 
3.030338016844327, -4.93478370355866, -0.598421090429312, 56751000000, 
2.443041649718778, -4.00494030368766, -0.5973006206612398, 56756000000, 
3.744401444119173, -6.013569087608422, -0.5954428571238404, 56761000000, 
3.1138343292266057, -4.98504855916035, -0.5937727109471946, 56766000000, 
2.82270365521644, -4.448381214831228, -0.5919648250792577, 56775000000, 
3.1625851793679, -5.072912847584607, -0.5897162238339523, 56783000000, 
3.204349868483876, -5.062470634505666, -0.5884029845547992, 56790000000, 
3.2132814876086195, -5.073959433575796, -0.5861494569543647, 56796000000, 
3.239326715416888, -5.174642284444963, -0.5837541013194102, 56802000000, 
4.32004044736588, -6.836413588410974, -0.5825207654008295, 56808000000, 
2.8009524517281092, -4.432632936267848, -0.5813679998249462, 56813000000, 
3.918235862966316, -6.178576252264153, -0.5796124183582738, 56818000000, 
2.832507956545114, -4.445863820843347, -0.5776974457302759, 56824000000, 
3.3170037854314525, -5.183534859314622, -0.5763970582946905, 56829000000, 
3.69114216487294, -5.790497958872516, -0.5739697544286106, 56837000000, 
2.262892679688227, -3.5014068777359943, -0.5732665706444886, 56844000000, 
3.632712881786115, -5.743743471320289, -0.5698689262040421, 56851000000, 
2.2548050863488966, -3.5043634340110486, -0.5691466856837452, 56858000000, 
3.397274820576969, -5.291577227705212, -0.5663785925669863, 56864000000, 
4.551339701509678, -7.054624490241924, -0.5652216243944949, 56870000000, 
2.9256112104462595, -4.542076597149279, -0.5637777966337278, 56874000000, 
3.4398815854548994, -5.303716776907223, -0.5616279547079114, 56880000000, 
3.448431697095205, -5.341270006784014, -0.5607721238804559, 56885000000, 
4.17365097348376, -6.3846409188417335, -0.5592257724706501, 56890000000, 
2.8131727518966496, -4.287019139610944, -0.558207091554839, 56895000000, 
4.190363512619756, -6.431381750135522, -0.5562564909175551, 56900000000, 
3.4964661576332716, -5.368080200366483, -0.5542487644260925, 56905000000, 
3.522990024665503, -5.393694063170629, -0.55331165164451, 56910000000, 
2.8343400780636676, -4.310999306681575, -0.5526255596613391, 56915000000, 
3.5305778491229467, -5.392930244251211, -0.5506611882091077, 56920000000, 
3.542259532561597, -5.401629410941666, -0.5491631782883907, 56925000000, 
4.2658900723003494, -6.506914475357255, -0.5478349730458963, 56930000000, 
3.582493925801818, -5.401937805197727, -0.5457095842106578, 56935000000, 
3.556968227384888, -5.398322287917981, -0.5447071038850184, 56940000000, 
2.8687113012341774, -4.402445544638596, -0.5438447232815716, 56945000000, 
4.334381274565008, -6.54092030768692, -0.5418919606872059, 56950000000, 
2.9182067120431587, -4.375286355892035, -0.5409989697371304, 56955000000, 
3.6392347267152116, -5.498383508017649, -0.5389459665886601, 56960000000, 
4.831307239698233, -7.314764381190319, -0.5382530883616982, 56965000000, 
2.95490191618996, -4.412960394005413, -0.5370517797228219, 56970000000, 
3.653455909132392, -5.469914353178338, -0.5351079777884953, 56975000000, 
4.396790287681326, -6.660988138494916, -0.5336319323143048, 56980000000, 
2.9748169493544947, -4.457637695179159, -0.5323573967280352, 56985000000, 
4.397258227469899, -6.631780633334989, -0.5305121210726227, 56990000000, 
2.9720431823098674, -4.457406676859134, -0.5294348301082402, 56995000000, 
4.233869661953009, -6.3379164557075915, -0.5271118656912133, 57001000000, 
3.7120880970320527, -5.574488411290405, -0.5260092381213127, 57006000000, 
2.9741437246100544, -4.452588622681536, -0.5245265776817523, 57011000000, 
4.476611143443874, -6.697401222956203, -0.522839965197186, 57016000000, 
2.995728658140954, -4.467205503107409, -0.5219112530065413, 57021000000, 
4.498239359621601, -6.710981323506758, -0.5202556316458471, 57026000000, 
3.000150873430501, -4.507627143130896, -0.5191433837632393, 57031000000, 
3.807702326692349, -5.638409552657559, -0.5169832984870623, 57036000000, 
3.766327323203565, -5.6188056851085175, -0.5162008632438447, 57041000000, 
3.806610373267558, -5.63760705796057, -0.5144371248719481, 57046000000, 
5.0586324450058795, -7.528311523849503, -0.5131574287172006, 57052000000, 
3.820037471966403, -5.625930038960718, -0.5114652491879542, 57057000000, 
3.2786751850225317, -4.887124844815345, -0.5097572664242132, 57062000000, 
5.092446257716275, -7.56072497604465, -0.5086861431794029, 57067000000, 
-0.005098512388316177, -0.03270385806544057, -0.5087100315904879, 57072000000, 
3.838098624371901, -5.6947717541646945, -0.5055824500085424, 57077000000, 
4.637208354927707, -6.823206796535946, -0.5036024332485681, 57083000000, 
3.863855651474654, -5.687756622176284, -0.5021455133422149, 57088000000, 
3.08455311117863, -4.565342027494365, -0.501198194332135, 57093000000, 
3.8732365247570373, -5.671534336591565, -0.49959308731505164, 57099000000, 
3.903479606751286, -5.742469798370252, -0.4986673101588703, 57104000000, 
4.660291849930932, -6.8522088055254065, -0.4969813429185849, 57109000000, 
3.1404677320126737, -4.604883565125802, -0.49605045792549063, 57114000000, 
3.8856195437324192, -5.759183947831221, -0.49335957995138613, 57119000000, 
4.7016142679251836, -6.871344687013676, -0.49175947628063954, 57124000000, 
3.163928791079358, -4.570894566272391, -0.49056078423884375, 57129000000, 
4.722206699666456, -6.906559430914017, -0.4888446655860213, 57134000000, 
3.1627723106950065, -4.645461644188404, -0.4875448024391207, 57139000000, 
4.503068050385589, -6.611686253102594, -0.48497758389416895, 57145000000, 
3.956970522031903, -5.780367214264865, -0.48408941022879853, 57150000000, 
3.177050012248501, -4.618847803920485, -0.4832429501624573, 57155000000, 
3.959699888137193, -5.780768060180661, -0.4808986134250724, 57160000000, 
3.996713894430704, -5.79364898446439, -0.47983829133722966, 57165000000, 
4.749002749929494, -6.95211573409076, -0.47842178464764706, 57170000000, 
3.991211267665975, -5.8119261538946105, -0.47711067810727714, 57175000000, 
3.1754927501104695, -4.670024610126916, -0.4758366530130899, 57180000000, 
4.747243302892134, -6.9554480952923, -0.47430935769120114, 57186000000, 
3.4034178787553606, -5.015070383014561, -0.4722822064117293, 57191000000, 
3.996806056836968, -5.853068420066347, -0.4711119030531265, 57196000000, 
4.01934121674, -5.827516207281061, -0.46942959692444375, 57201000000, 
4.026132441501882, -5.837999998509083, -0.4682985425002416, 57207000000, 
4.606428264248411, -6.695384840389798, -0.4658420279553396, 57212000000, 
3.2424615958416956, -4.724942851856424, -0.46437413965129826, 57217000000, 
4.806751211430485, -7.030219296055734, -0.4627026892997704, 57222000000, 
3.18503919758267, -4.707588620844029, -0.4618517686427192, 57227000000, 
4.8167688417290515, -7.032649165191798, -0.46020661943092867, 57232000000, 
3.25421018598516, -4.702575914777525, -0.4584998947901312, 57237000000, 
4.824841069832592, -7.0683572027964585, -0.45683875937859586, 57242000000, 
3.24038866542014, -4.713746361687528, -0.4553153090018561, 57248000000, 
4.612828717260536, -6.7393561312345165, -0.45320618097753107, 57254000000, 
3.201530746127154, -4.708042137694339, -0.4521768026892574, 57259000000, 
4.033794199938175, -5.905764504211303, -0.4503954394731687, 57264000000, 
4.056688899350409, -5.904577802756371, -0.4489349646639169, 57269000000, 
4.86773278853981, -7.098249313745479, -0.4469283027445064, 57274000000, 
3.2377962781799945, -4.756419254193097, -0.44623904939170494, 57279000000, 
4.86140982833649, -7.112721153712832, -0.44431898609007636, 57284000000, 
3.249820145093942, -4.771958631251418, -0.4431006908039461, 57289000000, 
4.845776192474219, -7.099300101124463, -0.4412900537290134, 57294000000, 
3.267260243737598, -4.770343074285752, -0.4398304920840176, 57299000000, 
4.901089090714164, -7.138098626347614, -0.43794368667248074, 57304000000, 
3.2950689002788405, -4.766715819844098, -0.43733410676174195, 57309000000, 
4.919743530860635, -7.162165586862503, -0.4353220160078492, 57314000000, 
3.2718662395581366, -4.785390815284216, -0.43402294570409794, 57319000000, 
4.904916375696792, -7.165153321458283, -0.43234704139705477, 57324000000, 
3.291096959100294, -4.790685174102602, -0.4307761169971057, 57329000000, 
4.870733545401065, -7.141754043474029, -0.42927772023356264, 57334000000, 
3.2492267423412415, -4.809634642665939, -0.427687452731573, 57339000000, 
4.919016364980571, -7.178429800089179, -0.426132669790777, 57345000000, 
4.115757058048695, -5.98228497197511, -0.4241689445836288, 57350000000, 
4.5070275375770255, -6.588166409852495, -0.42218397745301767, 57355000000, 
2.4961782203063616, -3.606014270274868, -0.4213500534165571, 57360000000, 
4.8973038117459105, -7.182584399851913, -0.4197262210129986, 57365000000, 
4.85821198373959, -7.164842476883545, -0.41758390104164145, 57370000000, 
4.086762597756275, -6.000810306655839, -0.4160539619054132, 57375000000, 
3.0929947098956143, -4.5418149756142245, -0.41515706178922274, 57380000000, 
4.109145034958363, -6.0204258730341484, -0.4134850990083698, 57385000000, 
4.098860117409377, -6.013276407984444, -0.4119716702868071, 57390000000, 
4.118476206960732, -6.0290558676182675, -0.4104488649479937, 57395000000, 
4.121105665210777, -6.044499530892602, -0.40915816046544384, 57401000000, 
4.099959034975246, -6.005493732241902, -0.4068674441891798, 57406000000, 
4.0841084348713, -6.041781613314609, -0.40532518299268255, 57411000000, 
4.090249929694348, -6.026916399871031, -0.40389298719499495, 57416000000, 
4.088022144360757, -6.027658444888026, -0.4026575007076948, 57421000000, 
4.0996512141652435, -6.03762037603346, -0.4010108942752607, 57427000000, 
4.094537797761619, -6.037799456999477, -0.3987438201403407, 57432000000, 
4.124509517203537, -6.028610230100087, -0.39747841306782666, 57437000000, 
4.108779190843364, -6.051311445495882, -0.39565808834819405, 57442000000, 
4.133409395545157, -6.079591182632659, -0.39453086188214764, 57447000000, 
4.094686507760697, -6.08416078031507, -0.39324083923639036, 57452000000, 
4.106943593613413, -6.070674978076717, -0.3908305916948005, 57458000000, 
4.0907543367152455, -6.059512072519572, -0.3893564698126947, 57463000000, 
4.088699668432154, -6.075032995367242, -0.38759628325906514, 57468000000, 
4.094510501871989, -6.074753274325349, -0.38626924165525456, 57473000000, 
4.097902341438166, -6.100043037025497, -0.38485040659249997, 57478000000, 
4.088344888694965, -6.070561485907052, -0.38284249939038, 57483000000, 
4.096022330663611, -6.129565813069966, -0.3811055355371697, 57488000000, 
4.070346044175668, -6.093365184794766, -0.3800380434071272, 57493000000, 
4.101093260837363, -6.114489608994742, -0.3782136507797625, 57498000000, 
4.083397468771721, -6.127720391087165, -0.37645927808266105, 57503000000, 
4.066001361952265, -6.112722055113744, -0.37560578247589327, 57508000000, 
4.091167820624697, -6.094804280186362, -0.3735700090903527, 57513000000, 
4.062460303836332, -6.080324025499278, -0.37191273726929863, 57518000000, 
4.057743855965748, -6.086654665569995, -0.3702534517123435, 57524000000, 
4.065166520728712, -6.123543192709763, -0.3685910991795939, 57529000000, 
4.074824315179672, -6.08643730052993, -0.36688591480841004, 57534000000, 
4.052262688003841, -6.114996112452376, -0.36575720365360803, 57539000000, 
4.0776851235754075, -6.119589926881338, -0.3637265249887844, 57544000000, 
4.0476119269564395, -6.138478983066624, -0.3621909912936909, 57549000000, 
4.057429373954462, -6.15717075811072, -0.3607240512848978, 57554000000, 
4.83433867973931, -7.321686964594821, -0.3591762208594204, 57559000000, 
2.4483770636598745, -3.7111681634080878, -0.3580098392023766, 57564000000, 
4.83308706273191, -7.362551151312797, -0.3560764979850002, 57569000000, 
3.2313619189572145, -4.939271118650536, -0.3545454086975461, 57574000000, 
5.591406569588937, -8.532500151403857, -0.35243533788072534, 57580000000, 
3.440614009229588, -5.248728807134792, -0.35052874057123623, 57585000000, 
3.243136501797117, -4.918639083887164, -0.3493712179215806, 57590000000, 
4.572025904109137, -7.00665489578419, -0.3471433051674254, 57595000000, 
4.013272139874335, -6.120676928336406, -0.34596525814635765, 57600000000, 
4.169503149111198, -6.4693730357279815, -0.34428190902700856, 57605000000, 
3.21148579040513, -4.974972509030847, -0.3426716874744452, 57610000000, 
5.377038155595597, -8.269710465296225, -0.34058598430892106, 57615000000, 
3.2100189210723324, -4.955601140735971, -0.3394262624627805, 57620000000, 
4.266455057997147, -6.599115090197142, -0.3375297138410833, 57625000000, 
3.19619537407782, -4.975180895798187, -0.3364369055807052, 57630000000, 
5.236012535078086, -8.141682378559814, -0.33441800967001195, 57635000000, 
3.9831348252841354, -6.183467906951257, -0.33278891512256037, 57640000000, 
3.6158987550963912, -5.635148233747516, -0.3309979155165676, 57645000000, 
4.318244473147356, -6.751700564394693, -0.32888387280672815, 57650000000, 
3.937374466613057, -6.1633649803325445, -0.3271296247158721, 57655000000, 
3.1580472574869782, -4.966397736743308, -0.3260361378972345, 57660000000, 
4.361854262149251, -6.869781093817505, -0.3241390645097643, 57665000000, 
4.225044114128376, -6.67150264488264, -0.3221767022589465, 57671000000, 
3.1653764362867043, -4.949515888741944, -0.3208888346182485, 57676000000, 
4.396483871934166, -6.956456226499243, -0.3185193139206, 57681000000, 
3.161237449230143, -4.942283897095933, -0.31759669815642105, 57686000000, 
4.960682417390761, -7.9340783358784295, -0.3154980477425153, 57691000000, 
3.9052760618878106, -6.212541082722773, -0.31422816963237477, 57696000000, 
3.6663114938082293, -5.866667062574424, -0.31207502266442194, 57701000000, 
3.0973041085314854, -4.982828969959082, -0.3105516771497821, 57706000000, 
4.902402773935393, -7.851902187600072, -0.3084022974721107, 57711000000, 
3.095113402012742, -4.970110724554115, -0.307176108972381, 57716000000, 
4.438900799026046, -7.112871878805639, -0.304362334863216, 57722000000, 
3.839542354892177, -6.234841214530462, -0.30302120857404974, 57727000000, 
3.689217198622865, -5.969111299933945, -0.3009453435258212, 57732000000, 
3.8669398019109464, -6.268490921636281, -0.2992820891807563, 57737000000, 
2.8879065068410625, -4.695983822461325, -0.2990069245800984, 57742000000, 
4.136166363797942, -6.80371528368913, -0.29489746595238303, 57752000000, 
3.0694352284948465, -5.017556193418311, -0.2933865708152762, 57757000000, 
4.302226471197274, -7.144369794323185, -0.29062979559135094, 57762000000, 
3.7872449087543405, -6.233755544443848, -0.28880472068894114, 57767000000, 
3.0084556442746835, -5.016111122061895, -0.28744519586828315, 57772000000, 
4.375513663741346, -7.284166510785083, -0.28539810317902864, 57778000000, 
2.9956216319580653, -5.02496821302658, -0.28430987384284956, 57783000000, 
4.266568582922675, -7.1655722001252755, -0.28121278428187196, 57789000000, 
2.98132878699737, -5.043752428139842, -0.2797686288986408, 57794000000, 
3.728530872259063, -6.357307493534792, -0.2760685130316136, 57804000000, 
4.324115629043677, -7.339372609896307, -0.2736543743521747, 57809000000, 
2.994500766477199, -5.049164303296164, -0.2724730379438236, 57814000000, 
3.6961020698210993, -6.297754038416302, -0.27107745719458737, 57819000000, 
3.759884091245757, -6.418394669350159, -0.2686974412054155, 57824000000, 
3.543503057578398, -6.176381942075783, -0.2667033659662666, 57830000000, 
3.63311111926788, -6.305577013837796, -0.2649618175069716, 57835000000, 
4.419743811016242, -7.69252975872839, -0.2631904326439433, 57840000000, 
3.6122887452332395, -6.275793285867692, -0.26004151273420556, 57846000000, 
2.263404106225272, -3.979152965045798, -0.2588119223021779, 57851000000, 
3.7734472857737598, -6.6352778442730145, -0.2584066772475943, 57856000000, 
3.529823949287115, -6.235619982549752, -0.2562955836579365, 57861000000, 
3.548389112791221, -6.323301125184159, -0.2528296461557468, 57866000000, 
4.322884266781187, -7.6826311322606955, -0.2508482729253862, 57871000000, 
2.816457251591137, -5.091731232869062, -0.24916072282085985, 57876000000, 
4.161932965544732, -7.489542272823801, -0.24686400762208838, 57881000000, 
2.807785659771465, -5.0609723299889735, -0.24514247482101242, 57886000000, 
4.2115130240891006, -7.663776307849748, -0.24295090541347458, 57891000000, 
2.777699269966863, -5.095763492024056, -0.2414516977174821, 57896000000, 
3.3443013553881293, -6.1342041686955335, -0.2407572276333821, 57901000000, 
3.44402188586153, -6.329402182603554, -0.23826822353671373, 57906000000, 
4.169136806717657, -7.707724893714088, -0.235249216217013, 57911000000, 
2.771226858171335, -5.117736993796192, -0.23382080676005393, 57916000000, 
4.03540238417955, -7.5414493498614545, -0.23180984072594593, 57922000000, 
2.9515216390449126, -5.5166834844637505, -0.22917980445844463, 57928000000, 
3.9955328732024054, -7.537755849787034, -0.22660717989944035, 57933000000, 
3.3430054446409128, -6.407805292502703, -0.22544179077197804, 57938000000, 
3.375253254818508, -6.43499819945467, -0.22234482540682082, 57943000000, 
2.197415928595826, -4.179907573770731, -0.22169045550417824, 57949000000, 
3.318834179226818, -6.4197358590048275, -0.21846643968533958, 57954000000, 
3.2852768943310973, -6.397106656053417, -0.21689065517977643, 57959000000, 
3.9209345387580243, -7.725594257418228, -0.21475933006661563, 57964000000, 
-0.00052638350393832, -0.041773158670760036, -0.2147825402826804, 57969000000, 
3.232397626411189, -6.352867225414566, -0.2107757136961485, 57974000000, 
3.8953341203168077, -7.717828732973698, -0.20795737855462526, 57979000000, 
2.12315083638737, -4.199252183386183, -0.20716788588065574, 57984000000, 
3.660215836159424, -7.2813375604597645, -0.20346825024905998, 57989000000, 
3.1928063447111703, -6.4165555597056505, -0.20144500739664353, 57994000000, 
3.124094888074413, -6.390270285890834, -0.19945361229256375, 57999000000, 
2.5271174461594637, -5.159446703165615, -0.19800664186431632, 58004000000, 
3.723542823130238, -7.661256381310997, -0.19580370763583982, 58009000000, 
2.487986491919583, -5.123736061895243, -0.19371075983086564, 58014000000, 
3.734272268226273, -7.70592075272347, -0.19106009973972995, 58019000000, 
2.4689489942600633, -5.1185482792992145, -0.1896244937791263, 58024000000, 
3.6620598737941736, -7.649621009004788, -0.1868451334093578, 58029000000, 
2.403316227238806, -5.15845097260794, -0.18519376853373046, 58034000000, 
3.6518096538465095, -7.756209592092676, -0.18254970126055436, 58039000000, 
3.0014662634350877, -6.403264149470497, -0.18025755056541445, 58044000000, 
2.986199289371745, -6.415795987174997, -0.17864466359588038, 58049000000, 
2.3871188236616634, -5.112790707891416, -0.17666364291107756, 58054000000, 
3.5228587188148843, -7.752322551120294, -0.17401788701650242, 58059000000, 
2.3442096576680957, -5.124033706927947, -0.17225268692385085, 58064000000, 
2.8842520209787024, -6.459588816026883, -0.17019891307052176, 58069000000, 
3.327438520905321, -7.347756867095026, -0.1665708575855485, 58074000000, 
1.893661617213382, -4.27803364885215, -0.1661087310838025, 58079000000, 
2.883348213632731, -6.482553386595398, -0.16327190238907377, 58084000000, 
3.383678714124218, -7.718906684088369, -0.16046172570840503, 58089000000, 
2.7948185526210514, -6.487447809506941, -0.15768719592609404, 58094000000, 
2.7928214139556045, -6.463548278122734, -0.15590646638890612, 58099000000, 
2.7838343553852507, -6.444961104377121, -0.15429551268818742, 58104000000, 
2.1692100194106696, -5.193393055149161, -0.1524263687775671, 58109000000, 
2.703501636108461, -6.446731797884819, -0.14967128806228663, 58114000000, 
3.2374654061015367, -7.744405306576059, -0.14691312339399057, 58119000000, 
2.1588146741014613, -5.162320869627602, -0.1452917873863726, 58124000000, 
3.145704596471941, -7.7422001722852, -0.1423578037055259, 58129000000, 
2.6304099992039154, -6.498453668461669, -0.13955873650967496, 58134000000, 
2.628734977741189, -6.452965693513716, -0.13747676249854268, 58139000000, 
2.055681641277701, -5.201242498335433, -0.13563223207034897, 58145000000, 
2.5782168220726436, -6.481719597582518, -0.13321491264417215, 58150000000, 
3.0536662336333413, -7.750890033579989, -0.13010011441778316, 58155000000, 
2.022999104108319, -5.206721786769327, -0.12836003453152786, 58160000000, 
2.9882725369671297, -7.767480541684836, -0.12528341461237888, 58165000000, 
2.001486156347561, -5.2417000391021675, -0.1233178481990832, 58170000000, 
2.757327625357963, -7.405330736389119, -0.11981584864066926, 58177000000, 
1.9321768025780945, -5.211050572626638, -0.11754584251880004, 58182000000, 
2.85152169443281, -7.82883161257202, -0.11461857509906799, 58187000000, 
1.88479663263801, -5.2317494802813505, -0.11260934212495205, 58192000000, 
2.7996187300550224, -7.783680382673824, -0.11013747994352942, 58197000000, 
1.8470577629462113, -5.216166878715615, -0.10792815359656077, 58202000000, 
2.315040554550888, -6.532297735464988, -0.10476090299999045, 58208000000, 
2.6951207811923035, -7.790734029494776, -0.10195888737822566, 58213000000, 
2.219875503356927, -6.527459334990589, -0.09895783430906782, 58218000000, 
1.778191788631206, -5.222973346098532, -0.09694755866159298, 58224000000, 
2.606523341537957, -7.825383659794694, -0.09379014025627284, 58229000000, 
1.8266885607067667, -5.589897979309678, -0.09070228127880468, 58235000000, 
2.802912038934643, -8.705036651954867, -0.0892201014761328, 58240000000, 
2.074628141649795, -6.534734284037245, -0.08583149801718988, 58245000000, 
1.6101811153883316, -5.2435186871610995, -0.08329734693503031, 58250000000, 
2.0405142041774713, -6.553111067125504, -0.08002607762531935, 58255000000, 
2.3918744289902634, -7.82616483387814, -0.0772934349343003, 58260000000, 
-0.0060877007196534685, -0.05645532239851615, -0.07724012808244436, 58266000000, 
11.97534593081289, -2.7557549724225483, -0.08248228929456816, 58271000000, 
9.949565669297755, -3.6212542364957288, -0.08561273790369062, 58276000000, 
0.8652294057521207, -7.266485638843529, -0.08415793698313383, 58283000000, 
1.502159863838805, -6.8088124438832835, -0.08403688274560925, 58288000000, 
0.8172529325300759, -6.727075961099912, -0.08309406235687569, 58293000000, 
0.6381230651754125, -5.934884487194778, -0.08186860064052849, 58298000000, 
3.248925326880134, -2.3436651226451506, -0.0837102938624266, 58303000000, 
1.944437907981816, -8.346332580521938, -0.08246642409387056, 58308000000, 
0.6529974617808514, -2.642974838162108, -0.083001689659788, 58314000000, 
2.02615726166688, -12.18624293047355, -0.0777383985549535, 58321000000, 
1.8709350805942944, -2.131969601420166, -0.07911048417206673, 58326000000, 
-0.3103132231995837, -3.3508094146024603, -0.07909974721463832, 58331000000, 
0.6155118074288115, -3.854565622750537, -0.07954496349526251, 58338000000, 
1.0204764325211098, -4.36535385907274, -0.08048723879597067, 58344000000, 
0.5160270319576874, -28.463316604579287, -0.06811571883267548, 58349000000, 
7.913584539943155, 0.06922854448177769, -0.07202534545122001, 58354000000, 
-0.6279600937310218, -3.5673162910559952, -0.07177286070737547, 58361000000, 
0.6940495609311642, -4.184411420025348, -0.07266476984557661, 58371000000, 
0.9436506485224181, -4.598436654007923, -0.07230503669016013, 58377000000, 
0.99644086702095, -5.006662293128784, -0.07422477482451581, 58385000000, 
1.051737481474012, -5.496628818256967, -0.07504168904001637, 58390000000, 
1.0823165503873775, -5.718877474596624, -0.07572539181300716, 58397000000, 
1.0665900573844904, -5.850958139294138, -0.07620091559359979, 58402000000, 
1.074212685413766, -5.976639097870505, -0.07791519381685749, 58407000000, 
1.0748778764987899, -6.124027295762888, -0.07816845223016919, 58413000000, 
1.0134610240591317, -6.261611148988387, -0.07993205603056816, 58420000000, 
1.037761646830918, -6.327103376455425, -0.08021051351377559, 58427000000, 
0.9999785752509515, -6.425459043950469, -0.08144001378569315, 58433000000, 
0.9663854023423868, -6.478651311315816, -0.08221561389477867, 58441000000, 
0.935452537648992, -6.544051502095269, -0.08317557575181714, 58447000000, 
0.8957153141453427, -6.563831817806314, -0.08414686811957083, 58452000000, 
0.9061184104645897, -6.546422790076446, -0.0847456651171983, 58457000000, 
-37.10874087970086, -36.15035872229299, -0.08463107174645451, 58462000000, 
14.91685440482719, -2.1702123175795904, -0.09899450729064663, 58467000000, 
-11.031128219756006, -9.842350402312544, -0.10555250966646136, 58473000000, 
2.168597781904508, -6.093243400293288, -0.11915535379101912, 58478000000, 
19.541838194029257, -1.3455504301732948, -0.13873219792419533, 58483000000, 
-14.819164445410841, -10.618848705439484, -0.1473811416867708, 58488000000, 
23.808679052859794, -0.44518704331989994, -0.1712776685626268, 58493000000, 
-18.335850681523834, -11.25344501977409, -0.18183658868317126, 58498000000, 
29.58082994168778, 0.7607217191666944, -0.21165947836460464, 58503000000, 
-23.015912880093943, -12.135403462574514, -0.2255826101498392, 58508000000, 
37.31018351921576, 2.4503806295318395, -0.26345626712923653, 58513000000, 
-29.214436966976564, -13.332175116525438, -0.28178895375794016, 58518000000, 
4.736059382029627, -5.308944183309918, -0.3211206704309255, 58523000000, 
4.900638076564389, -5.89967345044788, -0.3469704985407798, 58528000000, 
33.98783193024086, 0.9713484889177197, -0.38605718733383704, 58533000000, 
-25.484022802132635, -12.011702301936209, -0.4017204660567601, 58538000000, 
27.27342281972311, -2.5552448149281863, -0.43163249467104087, 58543000000, 
-0.6705721576944845, -7.8302905722862075, -0.44446310898342645, 58549000000, 
-9.427871835482499, -9.29720158746812, -0.4545337278950089, 58554000000, 
10.531214229016527, -9.547359225547561, -0.46463906829419194, 58559000000, 
-4.897378579570257, -5.225623531612767, -0.46323999294779694, 58564000000, 
-8.534075955775569, -2.796357667978201, -0.4589820041458952, 58569000000, 
-2.2516002194518823, -3.2331968930065287, -0.4578133057150248, 58574000000, 
0.4936510930501583, -3.7963979275757955, -0.4579873477998264, 58579000000, 
1.00654924304609, -4.202357530488065, -0.45903169912425373, 58584000000, 
1.0417815012351046, -4.555821395142355, -0.45950658443827, 58589000000, 
-13.184880950969424, -39.68187549354529, -0.4356610718533058, 58594000000, 
0.1776346325011472, -0.15975171466268823, -0.436014209245665, 58599000000, 
0.572025947140939, 0.08782209319599597, -0.4359498497717575, 58604000000, 
36.65383267986174, -8.753070244755584, -0.454756611337298, 58609000000, 
-4.284454927260794, -2.530299451265166, -0.45276445160875456, 58614000000, 
-26.336473951851048, -13.875791555604136, -0.43499425062994307, 58619000000, 
0.11853391849790422, -0.03930649426445557, -0.43530967846786184, 58624000000, 
2.959353143290049, -10.51316382383574, -0.429031623992169, 58629000000, 
2.4616963971223726, -8.593607119233937, -0.42521957715614445, 58634000000, 
2.0179983049599426, -7.245027232235262, -0.42286317674664814, 58639000000, 
1.3795328388631791, -4.7958736789285155, -0.4207275676650429, 58644000000, 
1.7645523369323441, -5.585080417817282, -0.41829539458450127, 58649000000, 
2.5383367522511504, -7.769585890590351, -0.4151505515978375, 58654000000, 
1.618621475612622, -4.814259842558225, -0.41333896585828406, 58659000000, 
2.294408105350391, -6.678673828430762, -0.4110085126448303, 58664000000, 
1.7415940687636702, -4.794206172766201, -0.4090569844972681, 58669000000, 
2.7963821279231853, -7.590431298134013, -0.40601596114526417, 58674000000, 
1.7824295911766634, -4.746166083884113, -0.4042542088109628, 58680000000, 
2.1088433280713734, -5.565794440574476, -0.40217352446294474, 58685000000, 
2.968467830477631, -7.455588122822206, -0.39926154948591874, 58690000000, 
1.889827704123718, -4.6716784237546705, -0.39779520219071446, 58695000000, 
2.677518217843937, -6.602580027287392, -0.3952898431522527, 58700000000, 
1.9927993473585721, -4.677329432906784, -0.39343687995963195, 58705000000, 
3.117687833882445, -7.267173323509666, -0.3909770459113933, 58710000000, 
2.048746028015012, -4.589140006565787, -0.389011592087921, 58715000000, 
2.9461698569370096, -6.552791385746044, -0.3871463260702486, 58720000000, 
2.127443955388134, -4.569413414406623, -0.38545726571880035, 58725000000, 
3.3137813723930694, -7.118330242657064, -0.38311989029988736, 58730000000, 
2.174760005931799, -4.53820490891634, -0.38203111915181004, 58735000000, 
3.188400210390269, -6.491350589434173, -0.37969577034740554, 58740000000, 
2.25562414486142, -4.522136935209026, -0.37805845369540775, 58745000000, 
3.5226372669639177, -6.945576658385857, -0.37591447104669873, 58750000000, 
2.8557996830123082, -5.566692486724645, -0.3748151938405538, 58755000000, 
2.819075681983154, -5.367466229687524, -0.37250921178022134, 58760000000, 
2.3807583763599207, -4.425032930779344, -0.3716132572639182, 58765000000, 
3.71152893994139, -6.7746384685894245, -0.3692817839207434, 58770000000, 
