acc_x, acc_y, angular_z, stamp, 
-0.06025462030665843, 0.13228780646924393, 0.30006439004643887, 198885000000, 
-0.07153134856296381, -0.015693401122933232, 0.30023817794227287, 198890000000, 
-0.07142945369524702, 0.09058328203977291, 0.299985865695481, 198895000000, 
-0.06128729019157701, 0.17479589815013888, 0.30003752303604325, 198901000000, 
-0.09856447545153103, 0.013170268469123683, 0.3001768428155148, 198906000000, 
-0.06524783446699467, 0.09667732248678348, 0.30046723083801874, 198911000000, 
-0.03730235888722049, 0.07109750886960631, 0.3000800844090022, 198916000000, 
-0.06978734071617351, 0.0788729278066988, 0.30002201227429187, 198921000000, 
-0.029612828184053357, 0.15131746131685583, 0.3002476139443693, 198926000000, 
-0.08622566012882885, 0.007773711316694968, 0.30032765605840905, 198933000000, 
-0.07140858298429381, 0.1038969347021707, 0.299897315657405, 198938000000, 
-0.06008970789120209, 0.14866274523813858, 0.3001628825189491, 198943000000, 
-0.08043016553513087, 0.014786931049489837, 0.2998981863875428, 198949000000, 
-0.09187924129711249, 0.08798651468152278, 0.3001895750640558, 198954000000, 
-0.022674163452419224, 0.18823132431932585, 0.299855299360518, 198959000000, 
-0.08115676042967328, 0.00043427192071643903, 0.30012411731284633, 198964000000, 
-0.08079611224737211, 0.08999898914841559, 0.3004634456486051, 198969000000, 
-0.10909554026118824, 0.1853530204765, 0.3382470201933562, 198974000000, 
-0.13178925363678895, 0.060934610082459914, 0.39964251046724253, 198979000000, 
-0.10555850137244421, 0.17950489858044305, 0.47580972271865696, 198984000000, 
-0.11231688410113885, 0.1627121789790905, 0.5634421930762267, 198989000000, 
-0.06413828597876875, 0.19572127494722932, 0.6529351521354423, 198994000000, 
-0.07527010221649595, 0.009574675578468538, 0.7573833258649778, 198999000000, 
-0.20468660329074045, 0.35871769244510027, 0.8253184164166543, 199004000000, 
-0.11122036038478456, 0.15362791450729232, 0.9126364316416273, 199009000000, 
-0.13391029352240943, 0.20891384326885837, 1.1629164414927042, 199019000000, 
-0.06394728258394944, 0.20176269430939175, 1.2644870336066056, 199024000000, 
0.05991013440116531, 0.13262369856762704, 1.3503094254537447, 199029000000, 
-0.18149452806925923, 0.34926127303384624, 1.4160633450545084, 199034000000, 
-0.08546046857832634, 0.22422870412958043, 1.4841424235161598, 199039000000, 
-0.075104967815177, 0.24182470803018333, 1.5375507643819002, 199044000000, 
-0.0814999588133227, 0.24192193805290194, 1.6021171131206478, 199049000000, 
-0.06306957259136409, 0.2744909833829315, 1.657921186930506, 199054000000, 
-0.035544649629508325, 0.2691015875518598, 1.696767923606576, 199059000000, 
-0.007634642628747308, 0.26985277893452564, 1.738851670468719, 199064000000, 
-0.04894543922124206, 0.30268156316644146, 1.7585571352500682, 199069000000, 
-0.11840278203996421, 0.3147360921494143, 1.785337330026794, 199074000000, 
-0.055786235385297894, 0.28573178663888027, 1.8313400531472477, 199079000000, 
-0.08023251177303217, 0.300941531595225, 1.884448842804787, 199084000000, 
-0.06675235840162791, 0.293633087625938, 1.9408505573780197, 199089000000, 
-0.06106126232687216, 0.3091808028062836, 1.9961249021578815, 199094000000, 
-0.06507109101518947, 0.3468607210674364, 2.047023162139279, 199099000000, 
-0.04759307623867415, 0.32710618288967935, 2.0904557012308533, 199104000000, 
-0.13562609617128682, 0.3602428014565604, 2.1528582489880796, 199109000000, 
-0.08182472662148324, 0.34879909592883485, 2.2328935724062617, 199114000000, 
-0.08011999125040868, 0.345516736895008, 2.3185554306596297, 199119000000, 
-0.06384975578872731, 0.39220418688978226, 2.403981620839959, 199124000000, 
-0.08130565460520484, 0.3834345435176221, 2.468312135332503, 199129000000, 
-0.011572907498494517, 0.3756786976133397, 2.551764838055714, 199134000000, 
-0.03507074985032444, 0.388000396446745, 2.6065739464471283, 199139000000, 
-0.1305058719527143, 0.45097921016186426, 2.667314311340058, 199144000000, 
-0.07835188410316514, 0.41866018058005044, 2.7644529314550828, 199149000000, 
-0.07024250160502703, 0.44680767184216774, 2.8440992728358965, 199154000000, 
-0.05039477556595193, 0.46335620700332925, 2.9032943806932665, 199159000000, 
-0.0549621390077306, 0.4237575196918465, 2.9681525692244204, 199164000000, 
-0.040711503382638195, 0.44938071170041277, 3.0277833783713852, 199169000000, 
-0.037248900177657474, 0.45431136041840625, 3.0547632287961495, 199174000000, 
-0.05034009445390516, 0.45926799643857646, 3.0880975502130346, 199179000000, 
-0.03659523601026818, 0.47872139011399817, 3.1160734368834917, 199185000000, 
-0.02934691933387506, 0.4802650568559212, 3.1314639021928117, 199190000000, 
-0.046831243628927884, 0.4920475717010809, 3.133918299391548, 199197000000, 
-0.03859345463118398, 0.4734216954499088, 3.129021958907543, 199202000000, 
-0.05123860286490978, 0.5111567024726319, 3.1010355813814825, 199209000000, 
-0.040907343399322636, 0.478358312369922, 3.0608177219067767, 199216000000, 
-0.03272019122960196, 0.46469476840625934, 3.032840206923646, 199221000000, 
-0.04173436361809336, 0.48222141471805524, 2.9984939000625763, 199227000000, 
-0.018003862718916408, 0.4526512312819818, 2.971881508242815, 199232000000, 
-0.031898171009585814, 0.4484480698606959, 2.9484564611725244, 199237000000, 
-0.06069410842287245, 0.4729928595010566, 2.927414607626158, 199242000000, 
-0.031924380584674034, 0.4529493005741499, 2.9176550088391475, 199247000000, 
-0.029947192715634202, 0.4608810302141254, 2.910720434875745, 199252000000, 
-0.03572280766730445, 0.4818091394159316, 2.9098367174925155, 199257000000, 
0.0037675765359439298, 0.47526546345902865, 2.915501985197355, 199262000000, 
-0.02990816272108104, 0.44863236711503907, 2.923305735143239, 199267000000, 
-0.05425991037222786, 0.471265695221666, 2.936420382463299, 199272000000, 
-0.06621190692528617, 0.4238947447152023, 2.9518016584293973, 199277000000, 
-0.07410081203379278, 0.4295580696814501, 2.9689474230259743, 199282000000, 
-0.05957213549944588, 0.46281863762930936, 2.9756766406776194, 199287000000, 
-0.0586179147234143, 0.4448281973434896, 3.002939528293307, 199292000000, 
-0.046999466254331664, 0.4241319009931326, 3.0176479328195573, 199297000000, 
-0.0511397218528715, 0.4389088283428117, 3.029275768121334, 199302000000, 
-0.042262788074469954, 0.4812693072454549, 3.0389575056747575, 199307000000, 
-0.0376524363671575, 0.42165303749050415, 3.023117473525033, 199312000000, 
-0.09273363305178972, 0.46844261615526334, 2.985609333304047, 199317000000, 
0.05141930263305976, 0.48885372612560424, 2.9025388186974745, 199322000000, 
0.042516671137691406, 0.4541467598782725, 2.796550773372928, 199327000000, 
0.013688158436497396, 0.4284510408965734, 2.719777024464429, 199332000000, 
-0.0006648669695284853, 0.40418233620047667, 2.6037918411439414, 199338000000, 
-0.03586106237189539, 0.3994200351424057, 2.513633345993401, 199343000000, 
0.0075809405020267236, 0.38353925102934205, 2.444032745969686, 199348000000, 
-0.01803975217507594, 0.35387368892818566, 2.3529184699363084, 199353000000, 
-0.047732079059399024, 0.3441011045802397, 2.2940155109636513, 199358000000, 
-0.04916932975305645, 0.36748323175620884, 2.2474468292799337, 199364000000, 
-0.04156733414584886, 0.3422334536163861, 2.22800098742249, 199370000000, 
-0.04858101371069878, 0.32723809877742194, 2.2315299832530675, 199375000000, 
-0.05661009128414881, 0.33696007818020174, 2.2582952193749035, 199380000000, 
-0.030259574195607413, 0.3887978934251667, 2.27943888730366, 199385000000, 
-0.044027076235033866, 0.37286199418812, 2.3326161211104965, 199390000000, 
-0.04427314143618148, 0.3380837931169439, 2.395388084751498, 199395000000, 
-0.06500413445631388, 0.413076170183192, 2.439644229199946, 199400000000, 
-0.04384988291416686, 0.41922567090731777, 2.4933665195774255, 199406000000, 
-0.05536394943391114, 0.3801415964864639, 2.5525133729550946, 199411000000, 
-0.055821674424345484, 0.3958573080198623, 2.5698074483523863, 199416000000, 
-0.060488611497394956, 0.4000438697538247, 2.560279822345917, 199421000000, 
-0.040869720720967034, 0.4163602470629161, 2.537435498549039, 199426000000, 
-0.02246378456836453, 0.35278397061884936, 2.492751642783869, 199431000000, 
-0.025347744331547156, 0.40021334496929406, 2.4359986833841805, 199436000000, 
-0.03674047560615984, 0.39545543968630165, 2.3699723506662616, 199441000000, 
-0.02310646861786713, 0.4193367645537146, 2.2989399963148243, 199446000000, 
-0.0026534896614599825, 0.2894961584852784, 2.221309201633715, 199451000000, 
0.01042394719716324, 0.29981105706678635, 2.144526872600406, 199456000000, 
-0.019935785900488126, 0.292821435468769, 2.074517346410803, 199461000000, 
-0.054501874075345534, 0.2870473596733597, 2.0039142432705295, 199466000000, 
-0.02143416482506296, 0.2969166670356348, 1.9682086241768573, 199471000000, 
-0.0316612174889592, 0.2931717557561185, 1.9367177587272382, 199476000000, 
-0.03674352755932058, 0.3008541102853831, 1.919145327769093, 199481000000, 
-0.04357924512861527, 0.35137103983377826, 1.922148643944222, 199486000000, 
-0.0613397895038697, 0.3239330301829335, 1.9337090003848312, 199492000000, 
-0.07731133347166676, 0.3114517148160233, 1.9663209257538685, 199497000000, 
-0.07536555110720133, 0.3242596406852399, 2.00291858522336, 199502000000, 
-0.057615944373682504, 0.34857333883378655, 2.0811770328653387, 199511000000, 
-0.03817306344012887, 0.34136487713118924, 2.1123515269637, 199516000000, 
-0.07568177661819446, 0.3453015918452081, 2.1406284125997233, 199521000000, 
-0.00576736340959369, 0.3635737207533408, 2.1504195485914455, 199526000000, 
-0.0544986709965814, 0.34696074760479756, 2.145935716432575, 199531000000, 
-0.042917987155430146, 0.32699021030200776, 2.135384882549501, 199536000000, 
-0.002445579846212683, 0.34138365379109686, 2.113404330099536, 199541000000, 
-0.027926868859242, 0.3006341464843417, 2.0849602734656307, 199546000000, 
-0.04231974780741858, 0.32718264239902, 2.0448220075618155, 199551000000, 
0.06249206186786566, 0.5335529645495207, 2.005083377760232, 199556000000, 
-0.08783758710765589, 0.2078677955854465, 1.9423817166249961, 199561000000, 
0.008118598669420437, 0.41667688274232056, 1.8784143865289418, 199566000000, 
-0.12295190434537515, 0.1925181814511121, 1.838772500283517, 199571000000, 
-0.02159206974378129, 0.32816436485062134, 1.7873889294414618, 199576000000, 
0.06164056512001875, 0.38672649425362765, 1.7522514371102234, 199582000000, 
-0.1056504639706279, 0.2244577993280274, 1.718372414275704, 199587000000, 
0.03601858792605614, 0.3667763950458199, 1.689983685011885, 199592000000, 
-0.1155154027664718, 0.1826191662784541, 1.6685642498009767, 199597000000, 
0.008976866655994387, 0.36230354642502144, 1.654741336390674, 199602000000, 
-0.15471868933258826, 0.1669662958706888, 1.6485982702357054, 199607000000, 
0.027766081587811273, 0.35268802898385154, 1.6515263706142826, 199612000000, 
-0.06404692517910501, 0.27121406616219773, 1.6571064498657466, 199617000000, 
-0.1337013858606819, 0.18264138385405154, 1.661466920930623, 199622000000, 
0.05401361558957851, 0.37508982080967473, 1.665347737199006, 199627000000, 
-0.0546967521910562, 0.2979085348816313, 1.6685993099576322, 199632000000, 
-0.14026299268168727, 0.22784187363560218, 1.6722627898355633, 199637000000, 
0.01592860305891727, 0.3397748672671399, 1.6736801124141405, 199642000000, 
-0.1457257756501222, 0.18134940991642753, 1.6752625336546711, 199647000000, 
0.02027151067356084, 0.37873088575139274, 1.6756845174921022, 199653000000, 
-0.06924928350091891, 0.2881571467856697, 1.6753345866551506, 199658000000, 
-0.1692379000920306, 0.24502531988640955, 1.6749802671357759, 199663000000, 
0.012401294074789626, 0.3586737367972107, 1.6729700738865474, 199668000000, 
-0.10121247614797757, 0.2983008143398214, 1.6704628612055517, 199673000000, 
-0.1114230808229201, 0.22494782471605412, 1.6687190347481253, 199678000000, 
0.03483442616041687, 0.3526269478442444, 1.6660511821672943, 199683000000, 
-0.1364659625988084, 0.20473980401834166, 1.657752399337269, 199688000000, 
-0.07469388331844526, 0.33068113788875064, 1.6490802089257197, 199693000000, 
-0.008379407214188804, 0.32282597713348565, 1.6292433827525516, 199698000000, 
-0.1977410604326442, 0.20360144769892072, 1.6173094125705127, 199703000000, 
0.030558025633552085, 0.37730129618159525, 1.6020338465034263, 199708000000, 
-0.07305492523804503, 0.27491041825631324, 1.5881445625649815, 199713000000, 
-0.1164539797629295, 0.23381670124526574, 1.5702205696705875, 199718000000, 
0.06780253055403578, 0.329184820185546, 1.5538456371336833, 199723000000, 
-0.12955077905876183, 0.21553181534368443, 1.5273032825899928, 199728000000, 
-0.045125823401747665, 0.2830103152474952, 1.5097009728206372, 199733000000, 
0.033317068136744704, 0.3204875361064644, 1.4881369189049438, 199738000000, 
-0.17524895741658275, 0.20331228752231972, 1.4690959780575648, 199743000000, 
-0.04657017113650715, 0.289280431898299, 1.4596500397939185, 199748000000, 
-0.003844869355844903, 0.29787382066426155, 1.4421638502924603, 199753000000, 
-0.1667017504920799, 0.19484591011636945, 1.435359177786309, 199758000000, 
0.0436576875202299, 0.269479648899114, 1.4331809254970171, 199763000000, 
-0.03634407624056857, 0.24894551151332667, 1.4344758752447457, 199768000000, 
-0.13971532375270349, 0.22285920221664549, 1.4414448973126712, 199773000000, 
0.029577557268797215, 0.31062714945327075, 1.450308055646064, 199778000000, 
-0.15139343613675355, 0.2192086714156507, 1.4645797331848953, 199784000000, 
0.04022871361444156, 0.3256943031728559, 1.4752369793066238, 199789000000, 
-0.15420360660559715, 0.25446099620107937, 1.4837548621852497, 199794000000, 
-0.05657326584966029, 0.2796502722336638, 1.4907996608766476, 199799000000, 
0.021628532981579282, 0.2951612973742031, 1.495563564118396, 199804000000, 
-0.17267649902707552, 0.2082888848584023, 1.4975411124149949, 199809000000, 
-0.02594369065149485, 0.2657492367821811, 1.4976846222831568, 199814000000, 
-0.005810803917504305, 0.24001131976574092, 1.4952054236779901, 199819000000, 
-0.13933562285318757, 0.21393964679360497, 1.4785043945528613, 199824000000, 
-0.021045064303032945, 0.3178725056527921, 1.4624349233083431, 199829000000, 
0.19174103836479992, 0.6398473619442894, 1.4355770783239874, 199835000000, 
0.1591872217888909, 0.37902316481478954, 1.4149390560224944, 199840000000, 
-0.06986672405139059, 0.2786469962694799, 1.395878853768706, 199845000000, 
-0.16857900301015433, 0.2747019302044382, 1.3776123560268947, 199850000000, 
-0.22490794716075035, 0.26144282805257685, 1.3728361911417264, 199855000000, 
0.05004061122252214, 0.24213225815412434, 1.3451966605143324, 199860000000, 
0.06726306506035837, 0.22887725452310642, 1.3367275890714043, 199865000000, 
-0.011960200475193885, 0.2551414934422864, 1.2959143037145489, 199871000000, 
-0.10762133300222239, 0.24268128755374735, 1.2815543324430727, 199876000000, 
-0.17799753210815153, 0.23029442226899555, 1.266527806247979, 199881000000, 
-0.19013818372621283, 0.2339387546526431, 1.2549181472608886, 199886000000, 
-0.23753286885220257, 0.24373972358518295, 1.2473787665387934, 199891000000, 
-0.25534047602804566, 0.23356816508054384, 1.2440188322977046, 199896000000, 
-0.2662122670010772, 0.21019144778805404, 1.2444155260265284, 199901000000, 
-0.25640723344558436, 0.23694216963191833, 1.2486447191569028, 199906000000, 
-0.25540058815676914, 0.21618802769934797, 1.2559742646868188, 199911000000, 
-0.18216141806277078, 0.24458808649242045, 1.2656585701698182, 199916000000, 
-0.17443366951225264, 0.24969023237802435, 1.2767874138631745, 199921000000, 
0.13768519052210523, 0.22100473430959627, 1.2803593398444837, 199926000000, 
0.17032380148137613, 0.22223841038142822, 1.278957658946889, 199931000000, 
0.18066713944899346, 0.264775759753844, 1.2726464687825727, 199936000000, 
0.14769576368849824, 0.22798658669684302, 1.2632050229154415, 199941000000, 
0.09005585287427999, 0.17661903711329288, 1.247826562321249, 199946000000, 
0.08546594240060726, 0.20783934541365406, 1.235890131643539, 199951000000, 
0.04554311999250123, 0.25174902704885516, 1.2208991147766992, 199956000000, 
-0.03339250042367996, 0.2395120530242193, 1.2092421413965895, 199961000000, 
-0.07129595439660506, 0.2248226995177653, 1.1923391863725075, 199966000000, 
-0.11266102232124282, 0.22349593572543355, 1.1785014844527828, 199972000000, 
-0.14684344039495492, 0.2376866477753305, 1.169903649076174, 199977000000, 
-0.15812445617747684, 0.2706435954306637, 1.1634419404058154, 199982000000, 
-0.19876742107695247, 0.2514019297595269, 1.1601250959996, 199988000000, 
-0.1773487198757978, 0.22145896536485193, 1.1606986462111706, 199993000000, 
0.12803138000277572, 0.044980177146527744, 1.1631164635455602, 199998000000, 
-0.005903034991969279, 0.09719605534015907, 1.1657575920329577, 200003000000, 
-0.09766236782329113, 0.1754521972698791, 1.1689948025140948, 200008000000, 
-0.09960496923661846, 0.19541461651122982, 1.1735915033091868, 200014000000, 
-0.14711519658089797, 0.21428176547830655, 1.1779527129196863, 200019000000, 
-0.10651255056906203, 0.19736150587007464, 1.181566544985139, 200024000000, 
-0.011401393424474436, 0.28199750740507346, 1.1786450070204224, 200029000000, 
0.13977615752601957, 0.2663240956641413, 1.1723055312853867, 200034000000, 
0.11735864370904589, 0.24202488306039216, 1.1629130986901257, 200039000000, 
0.05608928614398593, 0.23062988386304145, 1.1495518630835833, 200045000000, 
0.016383527989448875, 0.20302342111839097, 1.1363048528874549, 200050000000, 
-0.02960809831026381, 0.2055866712133783, 1.1242872875561634, 200055000000, 
-0.06840221558164697, 0.23971598810503034, 1.1104336733953684, 200061000000, 
-0.07719007296618645, 0.20413642845452923, 1.1005703139880614, 200066000000, 
-0.15270056227288228, 0.241767104614487, 1.0922363971690026, 200071000000, 
-0.12604197971225, 0.20128429892930189, 1.0865419019055502, 200076000000, 
-0.1618033573596177, 0.20846112987634902, 1.083001691728158, 200081000000, 
-0.17624220535887888, 0.20379301263190194, 1.0826262441068915, 200086000000, 
-0.1425360929545604, 0.2221086513778557, 1.0838425020599558, 200091000000, 
0.05271749458876769, 0.16788919017072085, 1.0806273018977812, 200096000000, 
0.048880650335074494, 0.19380419689616524, 1.0758889925078992, 200101000000, 
0.012246612952010578, 0.18324082218938698, 1.0687285895210163, 200106000000, 
0.004303460246351165, 0.19499874692920374, 1.0619734502341889, 200111000000, 
0.0026142524760342633, 0.2104915331564999, 1.0538033033125989, 200116000000, 
-0.030915993083487896, 0.2185290047316762, 1.0477141430096888, 200121000000, 
-0.043743201910261, 0.2305216029933461, 1.0402023762485864, 200126000000, 
-0.11066422814335644, 0.23132688717170374, 1.0324583478708753, 200131000000, 
-0.15713839609239394, 0.2493356942528259, 1.0269516924697981, 200136000000, 
0.058565673877257585, -0.0465198346895116, 1.0225123316690747, 200141000000, 
-0.008919273426660573, 0.24371223890237761, 1.0161772540001432, 200146000000, 
0.11691820262543988, 0.23270813524032652, 1.0112826427970614, 200151000000, 
-0.14202619871728211, 0.21284154687335316, 1.005297162548684, 200156000000, 
-0.033847711984006754, 0.16941041672922877, 0.9993496886668392, 200161000000, 
0.10084744937026137, 0.1929031285188604, 0.9946189433635474, 200166000000, 
-0.13712550715649843, 0.21020332492050853, 0.9891150549101678, 200171000000, 
0.05781210614406497, 0.20693600191739825, 0.9853224024248669, 200176000000, 
-0.06760168656951267, 0.18512877951761122, 0.9832785423968234, 200181000000, 
-0.1103778875703823, 0.18505096115973219, 0.9818964092609574, 200186000000, 
0.039673156105592564, 0.19396902033388322, 0.9813788268218263, 200191000000, 
-0.18029363920520997, 0.20987371761229034, 0.9803585019046739, 200196000000, 
0.05245450725997472, 0.18309620009841818, 0.974523545654471, 200201000000, 
-0.16179941728147038, 0.2151091824466904, 0.9655075146517395, 200206000000, 
-0.08442369746560445, 0.18686954216724133, 0.9587834800404244, 200211000000, 
0.04753868067885583, 0.210669495490203, 0.9487751157536861, 200216000000, 
-0.10680625596268352, 0.22239929279029613, 0.9340470053472302, 200223000000, 
0.07982872537155879, 0.1396897960587673, 0.9277345107633874, 200228000000, 
-0.1760564333836028, 0.18781861349582515, 0.9202961294543665, 200234000000, 
0.041717761033086866, 0.18084179124164912, 0.9141354825133188, 200239000000, 
-0.013795850555949132, 0.2116472272000558, 0.9112691277189733, 200244000000, 
-0.1268646191185627, 0.18791939121483953, 0.9095516325325925, 200249000000, 
0.052247184951326006, 0.1445450259497797, 0.9101145578855856, 200254000000, 
-0.175038012312516, 0.20441206961540662, 0.9128266335575034, 200260000000, 
0.02063362294490805, 0.1645704136277696, 0.9171444346795046, 200265000000, 
-0.0583679495093906, 0.17201396169032906, 0.9218215823029061, 200270000000, 
-0.18297426661698818, 0.1753993947013956, 0.9276909521868152, 200275000000, 
0.0651024532523328, 0.12578467986351966, 0.9315839950883439, 200280000000, 
-0.14316197487910542, 0.19327352740948722, 0.9385873552058482, 200285000000, 
-0.003588582999224616, 0.20223000609656477, 0.9442124956031691, 200290000000, 
-0.09264431766412437, 0.1773991344616583, 0.9473309521590187, 200295000000, 
-0.18815303983987983, 0.20854583968133417, 0.9457123929349267, 200300000000, 
0.022205658077640265, 0.17937100357596353, 0.9397593476414091, 200305000000, 
-0.05511867811993505, 0.18646434768462247, 0.9308868594872733, 200310000000, 
-0.20962689992586234, 0.19770066203094636, 0.9189803820779534, 200315000000, 
0.04575203821427715, 0.17840779265221776, 0.903814487679169, 200320000000, 
-0.060207089892116955, 0.16907182945007648, 0.8925485926153384, 200325000000, 
-0.13313368219442054, 0.200688068718275, 0.8773099466341846, 200330000000, 
0.051206060919141, 0.1456085216900733, 0.8681369683276604, 200335000000, 
-0.1523234274927473, 0.19158589390296518, 0.8581763728100568, 200340000000, 
-0.05440420227350504, 0.16547223104642128, 0.8503586586519968, 200345000000, 
0.06514402390330366, 0.14725949202335517, 0.8454389616542176, 200350000000, 
-0.19700557870044857, 0.21983091555219125, 0.8430471532793405, 200355000000, 
0.038746517584221304, 0.1345963010916442, 0.8435523096061012, 200360000000, 
-0.15537796773886509, 0.22496130675541537, 0.8451223791967101, 200365000000, 
-0.05621859476586559, 0.15617339084323387, 0.8446695601956248, 200370000000, 
0.03328334605017313, 0.15112122973865494, 0.8430083220596217, 200375000000, 
-0.1694574013643737, 0.1903740251911783, 0.8411791609560552, 200380000000, 
0.04996703407172786, 0.16968638592645588, 0.8394788944037361, 200385000000, 
-0.1908681531849778, 0.18606518305121164, 0.8367636668859667, 200390000000, 
-0.06749079178940655, 0.17656907703013303, 0.8343882711090789, 200395000000, 
0.053614364590059034, 0.16318983623774114, 0.8322409724343847, 200400000000, 
-0.1618317895624125, 0.18417330022546868, 0.8296418371665694, 200405000000, 
0.04407092811417807, 0.14163686046137364, 0.8275428324192912, 200410000000, 
-0.22116454621585632, 0.2203324958472559, 0.8269593593728412, 200415000000, 
-0.041191179396954214, 0.16227753630944705, 0.8258840426892377, 200420000000, 
-0.03505878436708029, 0.1689277676901165, 0.8254215946176685, 200427000000, 
-0.05619843688343141, 0.19352989809267468, 0.8254647604217998, 200432000000, 
0.04299299195498524, 0.1548673479152207, 0.8270269986332325, 200437000000, 
-0.2112258171750006, 0.207327956493528, 0.8280342281064884, 200442000000, 
-0.04772322562568374, 0.21012747913165183, 0.829194342374884, 200447000000, 
-0.011838299681453071, 0.12510385303284505, 0.8305265592134892, 200452000000, 
-0.13145525893067098, 0.20583701576147592, 0.8318329783028573, 200457000000, 
-0.056467915227638873, 0.16558113412298142, 0.8335898598254162, 200462000000, 
-0.07390388791861298, 0.13395517003858207, 0.8337053531898165, 200467000000, 
0.09065888321044788, 0.1304824184645748, 0.8305560281063709, 200472000000, 
-0.15954190479251099, 0.22250438106713075, 0.824965848004201, 200477000000, 
-0.04420717559575552, 0.16698877295164719, 0.815740368817329, 200482000000, 
-0.02771240758504642, 0.15874657484486956, 0.8065172272700857, 200487000000, 
-0.035713436760839726, 0.1604761279259016, 0.7969792432526814, 200492000000, 
-0.08119762776361925, 0.15885613454660907, 0.7881391877289118, 200497000000, 
-0.06657816382556933, 0.1648469688314024, 0.7798722744006398, 200502000000, 
-0.024849576775991766, 0.17013617124108554, 0.7728221177480008, 200507000000, 
-0.06724158854414877, 0.13305653481087504, 0.7668828048792404, 200512000000, 
-0.044072001675966484, 0.18004508309606937, 0.7636007942378412, 200517000000, 
-0.05671708230111048, 0.17052275046866774, 0.7622666184795999, 200523000000, 
-0.06965522103103028, 0.13731856916382887, 0.7623160620315745, 200528000000, 
-0.04887387173299139, 0.15784634677676504, 0.7646532315466964, 200533000000, 
-0.04829804279398762, 0.16576223016815123, 0.768139511916014, 200538000000, 
-0.05398938754448864, 0.14399407158750038, 0.7731292266568335, 200543000000, 
-0.03810517833635838, 0.16831908873621898, 0.7779030263616475, 200548000000, 
-0.051962659711927726, 0.1596733611849153, 0.7840613317495527, 200553000000, 
-0.06815872351999512, 0.17024713159170518, 0.7888954979028925, 200558000000, 
-0.049805386551737454, 0.15496758301012592, 0.7946093316948787, 200563000000, 
-0.05084475366605836, 0.1542476800762716, 0.7977960217083663, 200568000000, 
-0.05571114330468148, 0.14712918543497236, 0.7976779608284239, 200573000000, 
-0.05178328436718036, 0.15007069608883658, 0.7936756391471782, 200578000000, 
-0.04791896405337947, 0.15362079443674176, 0.7857063790042493, 200583000000, 
-0.07832234115130095, 0.1644735686459691, 0.7790061105356565, 200588000000, 
-0.030943162608658856, 0.16238265377457095, 0.7711749628488673, 200593000000, 
-0.06019527040518405, 0.15102607174774613, 0.7596593952470502, 200598000000, 
-0.05248359277795172, 0.13074727429037097, 0.7496243113852532, 200603000000, 
-0.06529049050209203, 0.13502906604721465, 0.7410713358704651, 200608000000, 
-0.06291466227587052, 0.15033538772345617, 0.733264645757109, 200613000000, 
-0.050935031294485324, 0.16312712489868206, 0.7272696439530729, 200618000000, 
-0.06626331513719093, 0.14668619578621714, 0.7225466853209246, 200623000000, 
-0.049260046174957495, 0.13351252061178848, 0.720868629710929, 200629000000, 
-0.044407471132242436, 0.15902610893607222, 0.7213267237156795, 200634000000, 
-0.04063921666165027, 0.1509702474035998, 0.7203301951050995, 200640000000, 
-0.0721782955075287, 0.13734182293765906, 0.719221788433519, 200645000000, 
-0.08711306147882839, 0.14432896243400525, 0.7181110072039251, 200650000000, 
-0.08546441058303852, 0.1375459841179573, 0.716633705198236, 200655000000, 
-0.04225669236799569, 0.13744468658852713, 0.7145620367429644, 200660000000, 
-0.04498561767546414, 0.13732470836518096, 0.7132201228264904, 200665000000, 
-0.032704604318573326, 0.15768564483154185, 0.7119841099494653, 200670000000, 
-0.04511190369094372, 0.1406067359421945, 0.7110199902752369, 200675000000, 
-0.05296947309529887, 0.12266085660443275, 0.7100058950354231, 200680000000, 
-0.031830062891446256, 0.14865590211493693, 0.7098037757610663, 200685000000, 
-0.058125965341595386, 0.14709196332835683, 0.7099298320738778, 200690000000, 
-0.09053836929521085, 0.10734279495210115, 0.7098039205578562, 200695000000, 
-0.06757811219345075, 0.15282215928797907, 0.710492013923242, 200700000000, 
-0.007854995406193888, 0.12220917150943403, 0.7112661833918631, 200705000000, 
-0.06461612400549002, 0.11887868219220646, 0.7118264828735186, 200710000000, 
-0.0557178235236776, 0.12862142694584489, 0.7131086234527767, 200715000000, 
-0.03668273741903502, 0.1387768687415504, 0.7137651124207522, 200720000000, 
-0.024472571543648788, 0.14103043112683938, 0.7151115108392423, 200725000000, 
-0.02781616023185829, 0.12701308948669288, 0.7153380504633937, 200730000000, 
-0.06506422117714711, 0.14035255728026755, 0.7164646127158611, 200735000000, 
-0.035739331012238265, 0.15080538562250068, 0.7148086431179969, 200740000000, 
-0.0535910916999868, 0.13054373999463048, 0.7113526025998613, 200745000000, 
0.0433110091181796, 0.08917350415199815, 0.7053623649628747, 200750000000, 
-0.1330619383944671, 0.14308771603405865, 0.7002331968333231, 200755000000, 
-0.0750275508890294, 0.12744329070680638, 0.6928892922931055, 200760000000, 
-0.005601360520269729, 0.14979850331580238, 0.6844756155418833, 200765000000, 
-0.10687855807426352, 0.11356454654295033, 0.6777938727871788, 200770000000, 
-0.03954204289886018, 0.12763795488004773, 0.6725324538864049, 200775000000, 
-0.07748769215487612, 0.10510300308916452, 0.6691526937118236, 200780000000, 
-0.0016067322758353659, 0.1794204788897112, 0.6640277661782987, 200785000000, 
-0.13314549984445062, 0.10259974717496773, 0.6622003941210511, 200790000000, 
-0.023050794881413116, 0.13192613979212778, 0.6611633756623474, 200795000000, 
-0.07523366017101761, 0.12475536621528487, 0.6618764246366576, 200800000000, 
-0.07328500710975222, 0.12453585254208514, 0.6639927409741714, 200805000000, 
-0.00893478219753244, 0.15399983532161712, 0.6673323155502323, 200811000000, 
-0.09793834570958085, 0.08237970005732341, 0.6705684292978892, 200816000000, 
-0.0384455016319705, 0.1374133128012637, 0.6748878516418895, 200821000000, 
-0.0013880552834875616, 0.1990586708957147, 0.678997346444374, 200826000000, 
-0.12840235044313555, 0.06640781934179343, 0.6829470493872777, 200831000000, 
0.017654575047563258, 0.18210012673960008, 0.6876557932470234, 200836000000, 
-0.04465693649789169, 0.14335627174613352, 0.688683081320354, 200841000000, 
-0.11585963945545633, 0.0728145725435334, 0.6878059047615953, 200846000000, 
-0.022409652748688835, 0.2073286938035803, 0.6845554412766385, 200851000000, 
-0.11805965086252618, 0.07825493152704148, 0.6793127700411475, 200856000000, 
-0.05532271147234827, 0.13041687160544213, 0.6729464820117268, 200861000000, 
-0.0021967890917894157, 0.22110837927533966, 0.6643834608871215, 200866000000, 
-0.16057119369546177, -0.0019302957490896387, 0.6583997154670789, 200871000000, 
0.006044826045301019, 0.23210194479038102, 0.6510012328106971, 200876000000, 
-0.05622956593024334, 0.012290626574271227, 0.644105416718388, 200881000000, 
-0.09869826379668781, 0.09374734210210041, 0.6391234098228296, 200886000000, 
-0.014804398571873505, 0.22402540795592407, 0.6345322113265449, 200891000000, 
-0.10932167004332276, 0.026365355984376365, 0.6320242785410357, 200896000000, 
-0.02558456628735719, 0.2591096435156394, 0.6303054566245074, 200901000000, 
-0.09108006830512275, -0.02483746135382073, 0.6305324366332086, 200907000000, 
-0.04538197106278309, 0.2927886315233118, 0.630361456127382, 200912000000, 
-0.07276356385985441, 0.15292574496290823, 0.6294573036067745, 200917000000, 
-0.08750440818503194, -0.025857076850489213, 0.6287512477811666, 200922000000, 
-0.0069917097494734725, 0.2798599640846281, 0.6270610523372666, 200927000000, 
-0.09850760050960836, -0.03175128201685351, 0.625588400806385, 200932000000, 
-0.054164615084567304, 0.22389420957602463, 0.6244628746274615, 200938000000, 
-0.03765144415562886, 0.15544039724999342, 0.6231317274889612, 200943000000, 
-0.13624066113393865, -0.0063705799638133324, 0.6224335549594606, 200948000000, 
-0.012208829640688222, 0.2521083221108295, 0.6218573386860676, 200955000000, 
-0.05331576259542225, -0.024951576401528685, 0.6211262328433016, 200960000000, 
-0.06942059007127949, 0.1354112426328508, 0.6218890858866603, 200965000000, 
0.029792937671582448, 0.29033265912700384, 0.6215878265458735, 200970000000, 
-0.10059145728961406, -0.07713203762302707, 0.6223894867834671, 200975000000, 
-0.03214809953889864, 0.24912336027793586, 0.6230122658381474, 200980000000, 
-0.04923698902558965, 0.13285484641335865, 0.622890316613186, 200985000000, 
-0.13054570006419836, -0.04774671146541982, 0.6238083035683724, 200990000000, 
-0.0030115096109492104, 0.26695737906988465, 0.6250833332341462, 200995000000, 
-0.05640319654030841, 0.09725969225394827, 0.6255736223835461, 201000000000, 
-0.11587362278868747, -0.056332580471056146, 0.6261811262893852, 201005000000, 
0.023999892836530992, 0.2272222801025816, 0.6261547380183163, 201010000000, 
-0.1383200421632287, -0.08228211634473942, 0.624201315489637, 201015000000, 
-0.07092046020743512, 0.18163575728490675, 0.6214413166211679, 201020000000, 
-0.02389485336858076, 0.27251484658962155, 0.6147800800184424, 201025000000, 
-0.07551603042017069, -0.10600941734448702, 0.6110875966042304, 201030000000, 
0.004075604256269955, 0.29579460160693616, 0.605742472019237, 201036000000, 
-0.10264183997343984, -0.03717273132771272, 0.5991926964694911, 201041000000, 
-0.07406404750621529, 0.14426551715166414, 0.5947820114834408, 201046000000, 
0.004261878788617153, 0.3009556846312566, 0.5902142416044611, 201051000000, 
-0.1277441782830997, -0.059509217231657946, 0.5874660658987481, 201056000000, 
-0.04162339907800722, 0.16077165188383638, 0.5855674733923788, 201061000000, 
-0.020482221691135852, 0.3013267189920958, 0.5846178324756596, 201066000000, 
-0.07755842195956149, -0.04973890578107382, 0.5848617843549723, 201071000000, 
-0.0578178356134537, 0.12150023604418125, 0.5861958083053719, 201076000000, 
0.014631415283101726, 0.2882981858353529, 0.5858867417289055, 201081000000, 
-0.10254899359912889, -0.09244442612207279, 0.5858975881221589, 201086000000, 
-0.07743199492683346, 0.1537306435509922, 0.585058000338969, 201091000000, 
0.013347408649773422, 0.323557940185807, 0.5835361858869622, 201096000000, 
-0.11363810425075016, -0.05582617080985643, 0.5817603610170946, 201101000000, 
-0.04106479789123634, 0.10349093170846713, 0.5806048502115438, 201106000000, 
-0.05756857290618077, 0.0913739214869029, 0.5769712954101188, 201114000000, 
-0.06810840695361921, 0.1468353378363221, 0.5756838656724101, 201119000000, 
0.015066489908182948, 0.23909932961249258, 0.5743196119428916, 201124000000, 
-0.12266130074575853, -0.037739608967637596, 0.5727162242284604, 201129000000, 
-0.03567551544621521, 0.13907846308063723, 0.5717943084865975, 201134000000, 
-0.03422110462758734, 0.12412556193013802, 0.5719718387357354, 201139000000, 
-0.05202982899158612, 0.13685749883961326, 0.5717819126071646, 201144000000, 
-0.0517393781088035, 0.10188094992872243, 0.5723547506876573, 201151000000, 
-0.03769432739089493, 0.09791797419922163, 0.5733894910102771, 201156000000, 
-0.054294952569995746, 0.14273672923695918, 0.5738932716412813, 201161000000, 
-0.022736991559428838, 0.2945494753948366, 0.5748013791554918, 201166000000, 
-0.12127733719214707, -0.07749992143861688, 0.5760512624127626, 201171000000, 
-0.054479555849722916, 0.13970067806328731, 0.5776128211575358, 201176000000, 
-0.058339361572013415, 0.14447882623606131, 0.5776475866033446, 201182000000, 
-0.03213464302121005, 0.11297038644627516, 0.5758879787381889, 201187000000, 
-0.061279119622391146, 0.13020068656713976, 0.5730563623044292, 201192000000, 
-0.03890425014875963, 0.14467800079560103, 0.5682795741305275, 201197000000, 
-0.08566409805121777, 0.11107925992160442, 0.5643337844785995, 201202000000, 
-0.0381106318046313, 0.12371907913226507, 0.5605247105903832, 201207000000, 
-0.06017866194439403, 0.1275484079743917, 0.555663402712243, 201212000000, 
-0.08398771242110498, 0.11210217771519657, 0.5521189806359793, 201217000000, 
-0.06038114454354218, 0.11147927211093711, 0.5482111973888156, 201222000000, 
-0.032196256763722966, 0.12957195855777964, 0.5450601771546463, 201227000000, 
-0.07649207378100872, 0.14313085638916553, 0.54328431547013, 201232000000, 
-0.06879173247520981, 0.10334216417539138, 0.5429086292511369, 201237000000, 
-0.051799969640449375, 0.15139252540665865, 0.5425905859611494, 201243000000, 
-0.03566085782761798, 0.15529596745851004, 0.5440633932489386, 201248000000, 
-0.09635164676702171, 0.07528922549368301, 0.5448584952276735, 201253000000, 
-0.01212071068140809, 0.15148913501564273, 0.5470737720529121, 201258000000, 
-0.03193324741559948, 0.09093074796509718, 0.5501224868634568, 201263000000, 
-0.0726189696897685, 0.14227537151860714, 0.5527834721422994, 201268000000, 
-0.07300569745308978, 0.09339112849574036, 0.555109547216452, 201273000000, 
-0.08989715652654576, 0.1584004767460352, 0.5575337499099244, 201278000000, 
-0.0721931706872822, 0.09852627826122663, 0.55905787908354, 201283000000, 
-0.05965463060383918, 0.14862823821884635, 0.557868158233739, 201289000000, 
-0.054784552972067066, 0.1119945462818398, 0.5572586632259273, 201294000000, 
0.01429450407903943, 0.22874851267090499, 0.5522699892597699, 201299000000, 
-0.13425834758428276, -0.013161025329771356, 0.548324112796437, 201304000000, 
-0.03636496711112808, 0.15317001953730083, 0.5444799553369215, 201309000000, 
-0.01992269313654429, 0.079419011768547, 0.5393663235040783, 201314000000, 
0.018552791509006628, 0.25978838624548434, 0.5332618262501587, 201319000000, 
-0.16034286788376725, -0.109322060979896, 0.5302899139263944, 201324000000, 
-0.036738566626844715, 0.11095105695793067, 0.5268522211418699, 201329000000, 
-0.061449360722442385, 0.12349775980655582, 0.5247365919065566, 201334000000, 
0.022378718055566547, 0.31110345234626513, 0.5225256700096108, 201339000000, 
-0.12547469469781633, -0.0191135164142364, 0.5220043190038971, 201344000000, 
-0.034069438774100534, 0.14779741764085563, 0.5224212717785851, 201350000000, 
-0.05205056050489734, 0.14475619784994137, 0.5211865768710127, 201355000000, 
-0.06547305018735868, 0.0926068664046072, 0.5206053885474973, 201360000000, 
-0.08152622759159645, 0.1430032146945257, 0.5197957856182358, 201365000000, 
-0.041683773509723014, 0.12398070127115035, 0.5186072489091289, 201370000000, 
-0.06780245524527763, 0.06255339315611583, 0.5173351887057103, 201376000000, 
-0.013456892029719718, 0.24999573221068724, 0.5163316183432668, 201381000000, 
-0.10748083550556406, -0.030016616083399478, 0.5154488261478622, 201386000000, 
-0.07073737528456636, 0.15778957628715384, 0.5149725674174079, 201391000000, 
-0.0070527692472377515, 0.29153470196688763, 0.5141208610638625, 201396000000, 
-0.1315626970801543, -0.03961406446284932, 0.5137909636328704, 201401000000, 
-0.042366423698513025, 0.15060579391485956, 0.5141623664749886, 201406000000, 
0.0413238185453233, 0.27509038898466104, 0.5144319468872708, 201411000000, 
-0.1380220887521217, -0.04457101380200249, 0.5147498994210981, 201416000000, 
-0.0005559072785745398, 0.27944120596544253, 0.5152520013990962, 201421000000, 
-0.11779220108554295, -0.014390496107592122, 0.5155200964244767, 201426000000, 
-0.07471226002169624, 0.0920823147794262, 0.5164330589756134, 201432000000, 
-0.02288070647491968, 0.2486498685362052, 0.5171321179861535, 201437000000, 
-0.1701515159779524, -0.04318486073462129, 0.5173295263526803, 201442000000, 
-0.01748587354326612, 0.1452636610246061, 0.518272446457482, 201447000000, 
0.03806561708842179, 0.22479093040989404, 0.5178152701547044, 201452000000, 
-0.14396320072876106, -0.0775596713015155, 0.5169847933562511, 201457000000, 
0.034092287602327964, 0.2795465371556853, 0.5145743227836989, 201462000000, 
-0.11391590619241979, -0.040129816823470804, 0.511127867741096, 201467000000, 
-0.035929186522887, 0.09547374666626829, 0.5081309980411445, 201472000000, 
0.011198655142100042, 0.28755908800414115, 0.5039875709235029, 201477000000, 
-0.19853207632129072, -0.08952417901202185, 0.50009527111403, 201482000000, 
-0.0456465004520779, 0.15140061523582204, 0.4975643138621614, 201487000000, 
-0.027760219602838733, 0.2512405339142676, 0.4936440921504284, 201492000000, 
-0.17497250303978917, -0.05575798147662267, 0.49134972809896016, 201497000000, 
0.03581523915547764, 0.29036807781772944, 0.49001398854367423, 201502000000, 
-0.15299331977028408, -0.08084831161461349, 0.48900895037670417, 201507000000, 
-0.08343126468838281, 0.14071426281509525, 0.48959163613650974, 201512000000, 
0.013387252906929308, 0.2803003527097266, 0.4896151268006933, 201517000000, 
-0.1520484220665498, -0.039478407796112405, 0.490863231193098, 201522000000, 
0.07196066036580478, 0.30402514373627976, 0.4925272136345634, 201527000000, 
-0.15655380599759844, -0.045161209044637836, 0.4948441886583664, 201532000000, 
-0.07471436255063349, 0.14626583717428812, 0.4970118000131799, 201537000000, 
0.03837911709500694, 0.2607539864056102, 0.4992024174952492, 201542000000, 
-0.16536491391932104, -0.04108258687621086, 0.5017142092006736, 201547000000, 
0.03174846577018192, 0.2785980714696721, 0.5031596681430746, 201552000000, 
-0.1587461893324208, -0.02126650099701361, 0.5035970315635719, 201557000000, 
-0.06884506443567125, 0.0946815589050411, 0.5022173490702592, 201562000000, 
0.052451806347287286, 0.3082484433309409, 0.5005448642736127, 201567000000, 
-0.17615340400859444, -0.006991560148677176, 0.4975120651854066, 201572000000, 
-0.029157833040257465, 0.14764794626368202, 0.4941186049272988, 201577000000, 
0.07021231994828894, 0.25481256811052694, 0.48980675508856225, 201582000000, 
-0.1602431344766444, -0.05214421484185418, 0.48565112218489714, 201587000000, 
-0.04745359725968033, 0.16956169303123342, 0.48234591015986755, 201592000000, 
0.047569634187946505, 0.303281593407604, 0.4791318968640671, 201597000000, 
-0.1536077929167959, -0.008085994443813908, 0.47599990530398906, 201602000000, 
-0.04556924965230319, 0.14591296783030017, 0.47465011201479423, 201607000000, 
0.03558819662979316, 0.24820464538660644, 0.47284551935422336, 201612000000, 
-0.16339791038793264, -0.06110536992301813, 0.47256379250492736, 201617000000, 
-0.06342425647690922, 0.16250123975059377, 0.47264935133627006, 201622000000, 
0.00863661115102489, 0.27315548382987653, 0.4719894461539457, 201627000000, 
-0.1759446019165456, -0.018023557067064558, 0.4712691718688076, 201632000000, 
-0.05554822391746464, 0.15203607402022576, 0.4709207692000553, 201637000000, 
-0.08027635901105105, 0.2714445384782763, 0.471030058061079, 201642000000, 
-0.10465886974670849, -0.03448541511259917, 0.4709284239665599, 201647000000, 
-0.05111849343424753, 0.11288316506313062, 0.4709742211502595, 201652000000, 
-0.15609697237280057, 0.1329440944721858, 0.47150096804365, 201657000000, 
-0.11715047235195905, 0.14136626982246261, 0.4733471110925207, 201662000000, 
-0.11589134185839917, 0.10467861639802879, 0.47664204455955095, 201668000000, 
-0.08220428517327996, 0.13587756674053325, 0.4790072334859956, 201673000000, 
-0.10684822679878922, 0.11823286569407616, 0.48220515759155314, 201678000000, 
-0.0060630999902036575, 0.12825038316157197, 0.4857097424906737, 201683000000, 
0.012886742703283136, 0.0858628673953366, 0.4880900581752679, 201688000000, 
-0.14546932796199594, 0.1502398289261814, 0.49033493631068287, 201693000000, 
-0.0848896414688047, 0.13718658854175192, 0.4923195429869161, 201698000000, 
0.05628105059265072, 0.24554534080803855, 0.49377166341071793, 201703000000, 
-0.08363680706131628, 0.0010043960531329185, 0.49466316199086463, 201708000000, 
-0.07955080116195022, 0.13829558914957815, 0.49463891436105506, 201713000000, 
-0.05117476101775273, 0.14054326163462894, 0.4946348362957298, 201718000000, 
-0.04913227350930007, 0.10593571493215187, 0.4937019539230993, 201723000000, 
-0.06915549937291064, 0.15625258679698992, 0.49170370483904696, 201728000000, 
-0.0777217980622868, 0.11384528918656248, 0.4885066187421247, 201733000000, 
0.04252527688521915, 0.1383126759119046, 0.48517832377015435, 201738000000, 
-0.022975785999891783, 0.09005658421339546, 0.48050184160394727, 201743000000, 
-0.019535847304285998, 0.1324821532068127, 0.47712396235205107, 201748000000, 
-0.09723190209093693, 0.09296535697717043, 0.472908077916262, 201753000000, 
-0.07508453562167798, 0.10516629199170673, 0.4698100134140177, 201758000000, 
-0.021661687289991804, 0.10765681917300726, 0.4662855399366233, 201763000000, 
-0.07295720450244757, 0.14549795595199103, 0.46440133943147494, 201768000000, 
-0.08197573141494778, 0.07615260830853324, 0.4632289459925986, 201773000000, 
-0.005306665238119816, 0.0837610780622018, 0.4611636327680332, 201778000000, 
-0.02259110174907252, 0.10129905409743402, 0.45923597259868415, 201783000000, 
-0.0165113348636307, 0.31158279406117634, 0.45794751413205703, 201788000000, 
-0.07691148033129883, -0.007452298066443765, 0.4565961918335684, 201793000000, 
0.08010968030975063, 0.25592623063197295, 0.4545496284078593, 201798000000, 
-0.1867656854891493, -0.08785850527060282, 0.4534799315539659, 201803000000, 
-0.03548986099286621, 0.13756935996390654, 0.45245327678481567, 201808000000, 
0.07804416511655185, 0.23209867129753084, 0.4515682430520475, 201813000000, 
-0.16926495378583642, -0.02075784142444992, 0.450735089582741, 201818000000, 
0.09418875416216518, 0.27630242595760757, 0.45041075854070034, 201823000000, 
-0.13008683246499755, 0.009301308003325444, 0.4498378943052571, 201828000000, 
-0.039730513318141876, 0.08192704845338739, 0.4484156308373116, 201833000000, 
0.0820228044787661, 0.24282669415129413, 0.44611148744468704, 201838000000, 
-0.21915912137918028, -0.06175097466359665, 0.44493637625344495, 201843000000, 
-0.07419429656125182, 0.12257774589783538, 0.44266016527398444, 201848000000, 
0.08191157296494345, 0.22595454871314694, 0.4402134444278306, 201853000000, 
-0.17027315731166986, -0.015262823809485427, 0.43845435573548813, 201858000000, 
0.07935114829178033, 0.23074317639531539, 0.4368872723584485, 201863000000, 
-0.19926825613223723, -0.05145608849382299, 0.435964588558372, 201868000000, 
-0.06016795833015792, 0.12177439916693977, 0.43548455369022215, 201873000000, 
0.09008387729675497, 0.24865406860918912, 0.43512206605310294, 201878000000, 
-0.17976028981294412, -0.012621136314992856, 0.4351033347551791, 201883000000, 
-0.061712391379207455, 0.11401115914012448, 0.4360385401575085, 201888000000, 
0.10952831065909772, 0.2584448640472947, 0.4367602722396487, 201893000000, 
-0.1946897446137691, -0.028895951230849346, 0.436308983719047, 201898000000, 
-0.07501835916794052, 0.09086920123864607, 0.43633267984258683, 201903000000, 
0.0890332776993624, 0.23342694386086205, 0.43470684746340466, 201908000000, 
-0.16830318109358897, -0.02609788324903177, 0.4334533109185576, 201913000000, 
-0.03984717875983453, 0.10975925047123757, 0.4318712266069589, 201919000000, 
0.05351900180154947, 0.24008137869717122, 0.4298250915911765, 201924000000, 
-0.20978168488306154, -0.0654841670375414, 0.4284022160606749, 201930000000, 
0.05719264922667033, 0.20662985944518136, 0.42669852597260266, 201935000000, 
-0.17211434688009988, 0.007037175163814181, 0.42537099142653895, 201940000000, 
-0.09514539174426596, 0.09349405615343846, 0.4249532813577098, 201945000000, 
0.06573329101268709, 0.2501625012288502, 0.4239808205286228, 201950000000, 
-0.21125786607161084, -0.06386093512928234, 0.4233412121701766, 201955000000, 
-0.05300579454588507, 0.1384164522225907, 0.4241257140444851, 201960000000, 
0.039058690541051905, 0.23906506628375132, 0.4242067700301181, 201965000000, 
-0.18161772917505936, -0.025011410193528295, 0.4248794916337667, 201970000000, 
0.02822777131693311, 0.20281079672630623, 0.4261643477650912, 201975000000, 
-0.0358815318249186, 0.15697991472014025, 0.4267197391047334, 201980000000, 
-0.18119144763876951, 0.00916397552086022, 0.42748304085460764, 201985000000, 
0.05804693884219038, 0.19393708858734765, 0.4289877230586997, 201990000000, 
-0.012245932440641396, 0.14386682504432613, 0.4291281017158139, 201995000000, 
-0.17153392103852003, -0.0465030642120788, 0.4292012225503784, 202000000000, 
0.03291809327818247, 0.21125137947906564, 0.4277808805426246, 202005000000, 
-0.19674733072171632, -0.01726380396192393, 0.42616405509820426, 202010000000, 
-0.13241156244328522, 0.06388204522599544, 0.423945341937123, 202015000000, 
0.06442244667615857, 0.19536099605030954, 0.42193309166069076, 202020000000, 
-0.15745412403826764, -0.051387665365017536, 0.41917252938363747, 202025000000, 
-0.06012442857955156, 0.07364504556991874, 0.4163976686681285, 202030000000, 
0.07491919726799963, 0.22535211955294301, 0.41414502780372403, 202035000000, 
-0.18993003091469512, -0.042204304278711254, 0.41190176027315095, 202040000000, 
-0.06734714898422059, 0.13463173618319235, 0.4104185843155184, 202045000000, 
0.050002324380241284, 0.20475443654753014, 0.40987848948448863, 202050000000, 
-0.16197507985378554, 0.0015268720199319383, 0.4093057640823487, 202055000000, 
-0.06018592437870795, 0.11148036769851864, 0.40948973512301445, 202060000000, 
-0.045818621119655505, 0.08774043565936306, 0.40986142581451535, 202065000000, 
-0.06224084563142304, 0.10582452648493175, 0.4106304750499709, 202071000000, 
-0.05216946497585955, 0.1294748613865338, 0.4119148449227015, 202076000000, 
0.07712484715853743, 0.23629618774308359, 0.4136543210733542, 202081000000, 
-0.20424448130305817, -0.016546382984533654, 0.41526810493510397, 202086000000, 
-0.040037303818814374, 0.11620976981727191, 0.4165387800196947, 202091000000, 
0.05837259735629057, 0.20524262055384632, 0.4182058660984979, 202096000000, 
-0.15997283836055332, -0.007535169810335304, 0.4182425102532866, 202101000000, 
-0.059039447690435315, 0.11711287919337515, 0.4177524091275977, 202106000000, 
-0.018960660230794492, 0.11933446998545527, 0.41629044774622764, 202111000000, 
-0.021123001778939093, 0.10721446466919425, 0.41400171004114017, 202116000000, 
-0.07151328865225685, 0.09493680494068266, 0.4125085751642535, 202121000000, 
-0.05582944120987607, 0.11768156786288907, 0.40945285923210495, 202126000000, 
0.020887648308629908, 0.18639451330651244, 0.4065217272807386, 202131000000, 
-0.1972410724361453, 0.014848615054170067, 0.40380403568610385, 202136000000, 
-0.028824594350308777, 0.10601808316294992, 0.40239208580503966, 202141000000, 
-0.0440514399746682, 0.10912113698195822, 0.39995898049122075, 202146000000, 
-0.04036966903551405, 0.11746926873742623, 0.3988828683629234, 202151000000, 
-0.06684915920168377, 0.11162145348772082, 0.397446998597439, 202156000000, 
-0.08524384052800038, 0.07986677589613474, 0.39731975770058, 202161000000, 
-0.044413538962920426, 0.10597761237125634, 0.39784371236817645, 202166000000, 
-0.05164943975877425, 0.10262430529226761, 0.39821241384630607, 202171000000, 
0.10004581914506167, 0.18008392960852213, 0.3996958353455165, 202176000000, 
-0.17504741698331922, 0.037097934409663365, 0.4013728740148849, 202182000000, 
-0.02377830314376984, 0.12227918801809971, 0.40277332274160577, 202187000000, 
-0.05259304009284954, 0.09131834840375186, 0.4043088343861792, 202192000000, 
0.07335022794845318, 0.1984050830961144, 0.40551553337571183, 202197000000, 
-0.18934231029441229, 0.03590551613846778, 0.4066707877340176, 202202000000, 
-0.04214640611558815, 0.0949363005408222, 0.4065972261941514, 202207000000, 
-0.06360557228046783, 0.1096670058307569, 0.40547444979505887, 202212000000, 
-0.04753829892458903, 0.1278286190121249, 0.4039266558153907, 202217000000, 
-0.055145118675284356, 0.07413218686929389, 0.4018184818353849, 202222000000, 
-0.03686967978596619, 0.09526959755262546, 0.39952661973383813, 202227000000, 
-0.04950851558516097, 0.07928284596113613, 0.397413407410233, 202232000000, 
-0.056042369466096156, 0.12225373258994555, 0.39454011673831957, 202237000000, 
-0.08099273285122773, 0.06280228863701393, 0.3925942207638183, 202242000000, 
-0.0680491902934348, 0.10892893355763626, 0.39087959635833214, 202247000000, 
0.05716615206021545, 0.1897718023211401, 0.38941260444492815, 202252000000, 
-0.1429263803176719, 0.008552214533116874, 0.3881470165777215, 202257000000, 
-0.01743045822920583, 0.10755018773994633, 0.38752239499258107, 202262000000, 
-0.019822643917249763, 0.09903826724028486, 0.38757264237977723, 202267000000, 
0.03551349878376079, 0.20688846314495052, 0.3872944772330362, 202272000000, 
-0.1672408730199025, 0.03304691311423509, 0.3862477245413227, 202277000000, 
-0.05588361016560433, 0.10986236350397842, 0.3855047410601198, 202282000000, 
-0.0532563351331864, 0.08936445717836165, 0.38536921021733106, 202287000000, 
-0.0634438561831886, 0.10596013315866655, 0.3843511399791259, 202292000000, 
-0.0558591933875498, 0.09960251542072172, 0.38354898617829813, 202298000000, 
0.026190978055244757, 0.15266161923919785, 0.3832297217853034, 202303000000, 
-0.17404527932555966, 0.017973763940017116, 0.3829185005238182, 202308000000, 
-0.03640545950203581, 0.11065153946537089, 0.3826437217645769, 202313000000, 
0.04808832655899746, 0.16713869263945172, 0.38240734441319774, 202318000000, 
-0.14908760764054682, 0.021291279715605696, 0.3823955334997703, 202323000000, 
-0.0024895087971325072, 0.10794867894695062, 0.38253305598227927, 202329000000, 
-0.041691728404349815, 0.11790182697193738, 0.38306185438859924, 202334000000, 
-0.020498881408520422, 0.10478001143745885, 0.3826970084550002, 202339000000, 
-0.07002975352270385, 0.10023485096013215, 0.3817983522092301, 202344000000, 
-0.04878381090978978, 0.0989674361907744, 0.38053972829762256, 202349000000, 
0.07327904732342908, 0.16911547313794945, 0.37878721006070487, 202354000000, 
-0.17499489051428288, 0.05731140571183184, 0.3772091491783561, 202360000000, 
-0.03868951124940318, 0.12169781047194093, 0.3753662646583211, 202365000000, 
-0.05871657718136223, 0.10376205147128287, 0.37405916244624043, 202370000000, 
-0.06307321247244645, 0.0876983911816003, 0.3722508825119231, 202376000000, 
0.1068954784594807, 0.17750393594182898, 0.371211476056957, 202381000000, 
-0.21229369774619014, 0.022692290532085466, 0.3704100957272444, 202386000000, 
-0.028763522411181047, 0.10823429426503857, 0.37060841658388616, 202392000000, 
0.07461609789379021, 0.16004683494447092, 0.3700591309554835, 202397000000, 
-0.153919908351136, 0.0041832444538014435, 0.3705608081821049, 202402000000, 
0.0617896890840926, 0.14787429488234913, 0.3712144607914307, 202407000000, 
-0.19151310417751582, 0.021657587473607715, 0.371317553816354, 202412000000, 
-0.0516246654424952, 0.08727898456566832, 0.37279064686559343, 202417000000, 
0.08599826142099457, 0.1754338636317905, 0.3738228655557021, 202422000000, 
-0.2111025981639064, 0.003306952176733706, 0.3746101873679865, 202427000000, 
-0.05586629216163244, 0.10693011376157743, 0.3754484575648566, 202432000000, 
0.08736372600697509, 0.15514615593901823, 0.3763479921767837, 202437000000, 
-0.2090539966178193, 0.007347951554304767, 0.3759765255088504, 202442000000, 
-0.07499810001917588, 0.08306734107202976, 0.37503686903813377, 202447000000, 
0.05367923314510124, 0.13273865798848805, 0.373502777495205, 202452000000, 
-0.2785446502582813, 0.025375598775384887, 0.3727597921944375, 202457000000, 
-0.05781895064638347, 0.10267275832137104, 0.3697980069581222, 202462000000, 
0.09698082605811717, 0.17181289393784296, 0.36779485912358606, 202467000000, 
-0.20813194181074351, 0.020048230570321804, 0.36557312637144795, 202472000000, 
-0.02375330380117437, 0.10475302963881591, 0.36404372631682946, 202477000000, 
0.05596226092628813, 0.1445266821469759, 0.36241775804488835, 202482000000, 
-0.15447091021205128, 0.04339372466599438, 0.3608357352802856, 202487000000, 
0.08055852360922469, 0.13217749089196987, 0.3599766850994665, 202492000000, 
-0.1388805962777239, 0.04370190849807015, 0.35938656905021926, 202497000000, 
-0.06085926425103412, 0.0876499421344886, 0.3595447725122615, 202502000000, 
0.10111020462862672, 0.14988831123659555, 0.35964457835356867, 202507000000, 
-0.2273623716926787, 0.017433446300304772, 0.3596057939756248, 202512000000, 
-0.020029239569978464, 0.04640880040168622, 0.35887269586493475, 202517000000, 
0.0923375288126462, 0.13614650013901744, 0.3585011257008931, 202522000000, 
-0.22590876344979102, 0.030370659677785117, 0.3579932000821537, 202527000000, 
0.05004097074681928, 0.12957298121215885, 0.357857791351663, 202532000000, 
-0.16704033771356364, 0.053136614754776185, 0.35681777408789406, 202537000000, 
-0.05217286987357665, 0.08339712258538304, 0.3564553391750875, 202542000000, 
0.06322335190570284, 0.14109271345677335, 0.35592179717327976, 202547000000, 
-0.1995999981155904, 0.04173774112019424, 0.35565897709308875, 202552000000, 
-0.06362920021216684, 0.09247575461073854, 0.3557627845311323, 202557000000, 
0.08416342709768365, 0.15897510882098564, 0.3554067076231609, 202562000000, 
-0.14640467821168324, 0.03224222727169951, 0.35527912870700046, 202567000000, 
-0.051078182065859984, 0.06843957473897963, 0.3556107878520517, 202572000000, 
0.10311679143563832, 0.14912723850280815, 0.35558785976978385, 202577000000, 
-0.1754088744341697, 0.029573028229995624, 0.35609097847719007, 202582000000, 
-0.06250677091837142, 0.11569779946224495, 0.35612455758254086, 202587000000, 
0.08991655508381666, 0.12667968285119766, 0.3570375425773709, 202592000000, 
-0.1898728452003633, 0.023450153662122462, 0.3570195554123504, 202597000000, 
-0.04068442974659213, 0.12995506398267376, 0.35717452251662396, 202602000000, 
-0.053723770188424204, 0.08037388796613956, 0.35740739038103614, 202607000000, 
-0.0794646935410956, 0.09304752744892653, 0.3570887421147138, 202612000000, 
-0.08820142840894446, 0.07409082747332642, 0.35577607244433024, 202617000000, 
-0.029008352055040355, 0.0742288589777713, 0.3544778379593315, 202622000000, 
-0.07341777437094793, 0.07620402898991908, 0.3528221903336334, 202627000000, 
-0.05560577439732846, 0.08550698976579135, 0.35123466075008514, 202632000000, 
-0.06724441352479052, 0.0878139568675392, 0.3493632594517285, 202637000000, 
-0.05393705281943577, 0.07819608666965856, 0.3477434164359159, 202642000000, 
-0.06880130528694502, 0.07752144678378901, 0.3461594305798901, 202647000000, 
-0.05012497426879256, 0.06487452914919817, 0.34512092474586, 202653000000, 
-0.04637639220002463, 0.0749763978988476, 0.34406744428776875, 202658000000, 
-0.06422247601311033, 0.0791828009244682, 0.34318687371497825, 202663000000, 
-0.09283815404791435, 0.08352384306938967, 0.34370011559653935, 202668000000, 
-0.06241039611487095, 0.09752525683600748, 0.34394494481380616, 202673000000, 
0.08782464391741188, 0.13509525418273965, 0.3445613408694751, 202678000000, 
-0.2313559101687294, 0.03971349840308338, 0.3451623219798871, 202683000000, 
-0.0374611628984301, 0.09216613154710764, 0.3461458123108497, 202688000000, 
0.06314397611988401, 0.12525659713180712, 0.3469060435275009, 202693000000, 
-0.21272426492225707, 0.06417409962316956, 0.34807880047873074, 202698000000, 
-0.05309237843767812, 0.09390484656618336, 0.3487955032834026, 202703000000, 
0.11566895493045365, 0.12701407117495356, 0.3501835540023786, 202708000000, 
-0.2323468558256624, 0.08792068680065915, 0.34994813329150404, 202713000000, 
-0.045862777105721175, 0.07530617870550183, 0.3491614963393504, 202718000000, 
0.1271896829838529, 0.11475928505963402, 0.34848151635089597, 202723000000, 
-0.18609757344132485, 0.05693692544937222, 0.3469382611541597, 202728000000, 
-0.02440461677362651, 0.07906725180402947, 0.34526727710476174, 202733000000, 
0.13836898820931107, 0.13346885775366096, 0.34356667300023547, 202738000000, 
-0.2211903208005726, 0.0681317985719119, 0.3418891111771815, 202743000000, 
-0.043499922941789844, 0.0841773468227257, 0.339664099785092, 202748000000, 
0.09509424204291264, 0.12207685269788422, 0.33770938203066103, 202753000000, 
-0.2199860516989712, 0.07845524917335978, 0.336770568745306, 202758000000, 
-0.05899368476183036, 0.07978888410684583, 0.3355591768568472, 202765000000, 
0.16045385465789774, 0.07978443761706797, 0.33527740637513803, 202770000000, 
-0.23393248577131776, 0.10263446384436349, 0.3350640202765808, 202775000000, 
-0.011182296580456948, 0.0550014455198999, 0.33530178941599204, 202780000000, 
-0.05228405807464485, 0.08895095772483959, 0.33470600664687383, 202785000000, 
-0.04941019313096942, 0.09885269103121548, 0.334056925433812, 202790000000, 
-0.07073650432542726, 0.08540366765676434, 0.3341351884669436, 202795000000, 
-0.0373115215296326, 0.0824881385908252, 0.33350718972110727, 202800000000, 
0.16522199203376775, 0.08527464618586579, 0.33325955365580656, 202805000000, 
-0.26710359938538203, 0.07972423992255061, 0.3331396004305157, 202810000000, 
-0.0649188503516973, 0.06863711455300713, 0.33232329504174396, 202815000000, 
0.12287877932956653, 0.08098394101246384, 0.33208834713103, 202821000000, 
-0.3128611148729675, 0.12501237794022835, 0.3317108955537099, 202826000000, 
-0.03133951400923452, 0.0828060780414863, 0.33200559706099986, 202831000000, 
0.08677773269024154, 0.05294562063508761, 0.33201596286937485, 202836000000, 
-0.30564765945876377, 0.10086105862448418, 0.3323421691145536, 202841000000, 
-0.06308668222296888, 0.08839649660383526, 0.33244059360995554, 202846000000, 
0.06453261783536353, 0.11390962642110808, 0.33272753059966714, 202851000000, 
-0.2700280414799695, 0.10012578568214228, 0.33265643594654476, 202856000000, 
-0.04582064047322598, 0.06770509505990083, 0.33320935724843265, 202861000000, 
-0.008361541826566392, 0.08910410276559677, 0.33328659257870225, 202866000000, 
-0.010838012161375338, 0.05964096206199426, 0.33389937413890425, 202872000000, 
-0.062494205702302956, 0.04786609894886557, 0.3337778748705474, 202877000000, 
0.06420127357016006, 0.10812543055395551, 0.33367054489031794, 202883000000, 
-0.21489718910312625, 0.09413930810206922, 0.3324096477537137, 202888000000, 
-0.05192537793741117, 0.09335888296513971, 0.3314911291338934, 202893000000, 
0.06787014842272257, 0.10427895818723353, 0.33027283238693284, 202898000000, 
-0.183067366264182, 0.057280165880646966, 0.32799391073559714, 202903000000, 
-0.0483853296743518, 0.0969735854517311, 0.3270958838962182, 202908000000, 
-0.044545521230026516, 0.07129789026149234, 0.3248627227824248, 202916000000, 
-0.05477089448928132, 0.046025519710222354, 0.32341903258264676, 202921000000, 
0.05233677072954686, 0.08458236677808564, 0.32243474359082896, 202926000000, 
-0.12875064442179054, 0.04751365211685442, 0.32128198963776555, 202932000000, 
-0.05152146014555522, 0.08784102362525867, 0.3212276948241895, 202937000000, 
0.055983255781353096, 0.12018976899415423, 0.32172998847988776, 202942000000, 
-0.11444984295607952, 0.042273435752483345, 0.32226027872951213, 202950000000, 
0.03451316270243215, 0.09376449990743979, 0.32266127783254084, 202955000000, 
-0.14226114621253216, -0.0032760422878419654, 0.3237175307771066, 202960000000, 
-0.033464429884642294, 0.0883846432743, 0.32499066319000924, 202966000000, 
0.03627587030250834, 0.11688160825498871, 0.32574385791875465, 202971000000, 
-0.09285064130760637, 0.05755531475095285, 0.32700642574822697, 202977000000, 
0.02521199837027047, 0.10810037089335021, 0.32783074040694077, 202982000000, 
-0.18000926539779763, 0.029400591958557487, 0.3272492748703052, 202987000000, 
0.018143673593808834, 0.06717380540199197, 0.32673293172743906, 202992000000, 
0.05031639219379681, 0.1103748500904402, 0.3256770698909906, 202997000000, 
-0.168552827749389, 0.03888972745414948, 0.32407773639600324, 203002000000, 
-0.06305434751553499, 0.107972461350262, 0.32207997083531464, 203007000000, 
0.04447731849862256, 0.11696209150060348, 0.3204493713604746, 203012000000, 
-0.12051763447895358, 0.0261342021501674, 0.3190465584707443, 203017000000, 
0.03221950155451492, 0.09633092442590516, 0.31691299663974437, 203023000000, 
-0.14038274532529763, 0.005412126350886745, 0.3158689717752578, 203028000000, 
-0.07164248497679514, 0.08251977068619246, 0.3152885234130109, 203033000000, 
-0.01292446328311582, 0.14356491031794036, 0.31441655245448197, 203039000000, 
-0.1149810101947957, -0.0014955879317277952, 0.3142049474804313, 203044000000, 
-0.04922950247185962, 0.04000337349589801, 0.31470744705055187, 203050000000, 
-0.055130807383519394, 0.08813482361598526, 0.3148570374309399, 203056000000, 
-0.04058151676274445, 0.11141677965890838, 0.31662869811979777, 203065000000, 
-0.11881653905895577, 0.05318273897885378, 0.3172484457524764, 203070000000, 
-0.05425294305418053, 0.0715473117061223, 0.3186366135387551, 203075000000, 
0.0005907343331435812, 0.17728525504304649, 0.3196683379887488, 203080000000, 
-0.09706922659283633, 0.04685163698063193, 0.319922817222529, 203085000000, 
-0.06583922759613811, 0.06578346640235196, 0.3197662261733151, 203090000000, 
0.008053721889554428, 0.13484206884976485, 0.31950605845522956, 203095000000, 
-0.14065663525783298, 0.03937691928668103, 0.31849378878084234, 203100000000, 
-0.04139675029819092, 0.14059518304458843, 0.31789053584605037, 203105000000, 
-0.07617181063283078, 0.057765476867691554, 0.3158881686465434, 203110000000, 
-0.041222738582876714, 0.07574364170789939, 0.31457246937998506, 203115000000, 
0.01927478172267834, 0.13234724446659707, 0.31292526792207065, 203120000000, 
-0.13262760566420453, -0.0318470445804183, 0.31178188851178423, 203125000000, 
-0.09030999011509117, 0.047846382058069806, 0.31029755983452034, 203130000000, 
-0.07121780819059663, 0.04728448576398089, 0.30893421367064844, 203136000000, 
-0.0576995078058216, 0.05483840659993815, 0.30884600081166896, 203141000000, 
-0.005268277593986391, 0.18410696381332745, 0.30810840733402783, 203146000000, 
-0.11708264917748272, -0.0007596732195035462, 0.3079120120058773, 203151000000, 
-0.05194523769262713, 0.08057591431314072, 0.30778048884278014, 203156000000, 
-0.0020009150592658472, 0.15556790231539047, 0.3072505138522883, 203161000000, 
-0.11779737477790522, -0.0004516177260789969, 0.30706511919883517, 203166000000, 
0.004915162734368552, 0.16063845320031842, 0.3068097950216598, 203171000000, 
-0.11297188194237133, -0.013908894820254213, 0.3057890416710705, 203176000000, 
-0.06651325232065247, 0.061981294641195464, 0.30586211176125055, 203181000000, 
0.006304651742958926, 0.15267819492100945, 0.30516372943931486, 203186000000, 
-0.12627698003667445, -0.041458989202491595, 0.30529816354793926, 203191000000, 
-0.029567422026663175, 0.13422532706575116, 0.3049345124356874, 203197000000, 
-0.08714045960454408, -0.006460159956506947, 0.3048781761963275, 203202000000, 
-0.06456415228911978, 0.08030322319231271, 0.3046607369438765, 203207000000, 
-0.0076579429564315946, 0.17415093251300207, 0.30490573947336613, 203212000000, 
-0.11257299101982625, -0.018884390123909037, 0.3051309300538973, 203217000000, 
-0.06445776513568645, 0.09492184593353903, 0.30567004596929703, 203222000000, 
-0.0006852815138898962, 0.13523211371716565, 0.30586805974451303, 203227000000, 
-0.13729272107223328, -0.020636416321453296, 0.3057289778235294, 203232000000, 
-0.0805315543997994, 0.09389703029636447, 0.3060529211509835, 203237000000, 
-0.01613229658098571, 0.07102082345522186, 0.30662298371995356, 203242000000, 
-0.04983614879964078, 0.07081530642098251, 0.3067654961379018, 203248000000, 
-0.024696065733468824, 0.1591594877248285, 0.30633846155735056, 203254000000, 
-0.09147584606277658, -0.00912226974690885, 0.3057987127464106, 203259000000, 
-0.028644384030741037, 0.151937099618172, 0.30557619168840044, 203264000000, 
-0.10088786046485324, 0.003535215224971745, 0.30367480567054184, 203269000000, 
-0.0727967130423575, 0.04572486509426814, 0.30299253399815207, 203274000000, 
-0.03269685114871903, 0.09901278204562898, 0.30139527882094996, 203280000000, 
-0.08077750030178878, -0.006021915684462702, 0.2998110807103055, 203285000000, 
-0.06787429086032123, 0.07371421464921978, 0.29874817236845974, 203290000000, 
-0.06278959307554648, 0.050449911629061026, 0.29774650832961386, 203295000000, 
-0.02122161265292136, 0.1421973771420054, 0.29665854735889857, 203300000000, 
-0.11409904829543199, -0.014830663856174783, 0.29610864437210377, 203305000000, 
-0.036916199601403674, 0.09786651736571064, 0.2960398310268727, 203310000000, 
-0.0065253635621157465, 0.19635581441926403, 0.29583557267414123, 203315000000, 
-0.08344864265068655, -0.028883559290177965, 0.2963717623038111, 203320000000, 
-0.04006838602860273, 0.034220061190818434, 0.2968575353822747, 203325000000, 
-0.049387253448917964, 0.10272559563932739, 0.29608817177654456, 203330000000, 
-0.06813862427982235, 0.0672599412323589, 0.2960900258806854, 203335000000, 
-0.02876622288257585, 0.16394362762108, 0.295670657423645, 203340000000, 
-0.07155469792420449, -0.0005978797834003471, 0.29537244198747203, 203345000000, 
-0.06820535387314798, 0.0653891588265943, 0.29478073518477177, 203350000000, 
-0.024298210825727428, 0.18151918883017823, 0.2946916342928715, 203355000000, 
-0.0653413388763538, 0.0047157333941402835, 0.2939318414982032, 203360000000, 
-0.07245926077076831, 0.04058519269303689, 0.29337150136661305, 203365000000, 
-0.039811507204927904, 0.14785349170823855, 0.2932141944469255, 203370000000, 
-0.10652690060153365, -0.022835849416689327, 0.29281112030539397, 203375000000, 
-0.06814094827664029, 0.10135272581125011, 0.2928151978934242, 203380000000, 
-0.030610606579059164, 0.15650212675966158, 0.292706952834016, 203385000000, 
-0.06662146930627587, -0.03667412561637029, 0.29277470613560935, 203390000000, 
-0.04600530603286531, 0.07952477864954424, 0.29272694698227564, 203395000000, 
-0.010281057358754897, 0.15266724610387591, 0.2927892150722732, 203400000000, 
-0.0757578899436727, -0.02394740793540265, 0.2932729498626317, 203405000000, 
-0.04210425022865347, 0.03268050330565584, 0.2937030072855451, 203410000000, 
-0.028962073605246025, 0.1493779332923478, 0.2939172824706835, 203415000000, 
-0.07834177668297435, 0.008205359524644684, 0.2938597429966263, 203420000000, 
-0.06201060340932717, 0.043343742768412435, 0.2943376167362282, 203425000000, 
-0.019980896435643013, 0.1646042177397861, 0.2939121473958621, 203430000000, 
-0.06896302970087421, -0.02889483017810137, 0.29279261135667217, 203435000000, 
-0.07939682958403516, 0.08217871178241705, 0.2918769309928424, 203440000000, 
-0.02956582670317244, 0.1563070869007279, 0.2911485597379467, 203445000000, 
-0.06953734965460141, -0.03044980311542459, 0.28996689878443854, 203450000000, 
-0.06884864675621573, 0.06466489527197289, 0.2884488356058866, 203455000000, 
-0.011105470361205027, 0.1535262887801742, 0.28774729314651026, 203460000000, 
-0.07584076254137925, -0.02463132299659241, 0.2863764632393551, 203465000000, 
-0.03986323144782685, 0.08744257028077261, 0.28580357510366394, 203470000000, 
-0.01466692813757909, 0.07728532758137825, 0.2852268532985356, 203476000000, 
-0.06275764658343862, 0.07076497858671096, 0.2847720065010047, 203481000000, 
-0.06713051699614116, 0.051436293037824946, 0.2849247613418469, 203486000000, 
-0.04189625251290537, 0.06897859513558859, 0.28556707787934626, 203491000000, 
-0.031247874081234174, 0.040205381745078386, 0.28598266713461346, 203496000000, 
-0.07010026777596493, 0.06228031460764399, 0.2861738046446383, 203502000000, 
-0.044808059387423965, 0.0619325979470044, 0.2874486005205331, 203507000000, 
-0.05760689995617767, 0.0963060780338085, 0.28780382294877077, 203512000000, 
-0.053913444317249114, 0.08023250883773266, 0.28862393934313857, 203517000000, 
-0.047059323582183454, 0.03932737385468366, 0.28891590293234326, 203522000000, 
-0.02326295863928724, 0.13862553564354055, 0.28929838855043644, 203528000000, 
-0.09526162419939282, -0.030360819003464226, 0.28931658571628355, 203533000000, 
-0.027780137862756345, 0.053643772125134846, 0.2885675146459908, 203538000000, 
-0.028057172873067783, 0.12105691268118611, 0.2870307001399151, 203544000000, 
-0.08501343531520449, -0.023792435365177354, 0.285844026857153, 203549000000, 
-0.05267408567896514, 0.061522944554429845, 0.28478693268037686, 203554000000, 
-0.08667811304265662, 0.04668904757766143, 0.28303926127115553, 203560000000, 
-0.05796501082765486, 0.04197951108770849, 0.2820392026167955, 203565000000, 
-0.0562254716916661, 0.12218985855351704, 0.28142743898368583, 203570000000, 
-0.08385664819692194, -0.03749779932358986, 0.2800780578792893, 203575000000, 
-0.047817050610212596, 0.06545468288465489, 0.279793492628305, 203580000000, 
-0.012735758100562312, 0.14504395327936373, 0.2791227772120217, 203585000000, 
-0.034111337287029066, -0.008654717262731627, 0.27944748493063937, 203590000000, 
-0.0366588945288846, 0.06101318845191969, 0.27964625061397713, 203595000000, 
-0.04135253869003021, 0.1337991854875877, 0.2793162598438135, 203600000000, 
-0.07246403217333977, 0.0015167615156007463, 0.27891951400509046, 203606000000, 
-0.06516954122865863, 0.06612710246039108, 0.278772012200515, 203611000000, 
-0.04762881961247015, 0.1731925132748063, 0.2782113174026242, 203616000000, 
-0.09622406453076429, -0.06705977825891186, 0.2779614909146217, 203621000000, 
-0.01106892739043349, 0.14094355605062533, 0.27784125858047126, 203626000000, 
-0.04657235473439664, -0.004700417006282461, 0.27728501622438756, 203631000000, 
-0.0711268062512983, 0.05776596951180684, 0.27737392105192227, 203636000000, 
-0.02417918272124019, 0.20901396429769104, 0.27692201375069125, 203641000000, 
-0.07071078548404963, -0.0282920309082356, 0.27662805126823564, 203646000000, 
-0.03450227483803647, 0.0841654294546533, 0.2769878638151319, 203651000000, 
-0.04129554868646261, 0.13350113598860158, 0.276754113221539, 203656000000, 
-0.07886696648819419, -0.03653490796831536, 0.27721520299958957, 203661000000, 
-0.04204073413219661, 0.08713161636523155, 0.2768764244670701, 203666000000, 
-0.07406556009930533, 0.09620940914934077, 0.2769490401830227, 203672000000, 
-0.06336916255209323, 0.06741492407253234, 0.277289624409827, 203677000000, 
-0.025833655923609554, 0.1640837717770805, 0.2773714918784158, 203683000000, 
-0.10937923097039931, 0.001448290839720659, 0.2783100984313169, 203688000000, 
-0.05439482014735416, 0.14919855305249705, 0.27815089543089944, 203693000000, 
-0.08555041066557878, -1.9962994692947038e-05, 0.27769274809788336, 203698000000, 
-0.07941122185949667, 0.06901352278163934, 0.2775864432442061, 203703000000, 
-0.020539076535269814, 0.1298602951579211, 0.27669227128539986, 203708000000, 
-0.08849388803466768, -0.02113971781211754, 0.27524467793839835, 203713000000, 
-0.0328729466690017, 0.061106975686731284, 0.27453324161296905, 203718000000, 
-0.026596900935792464, 0.18715966291187075, 0.2736866749593811, 203723000000, 
-0.08730033083459172, -0.0343886138101675, 0.27250450583947666, 203728000000, 
-0.05971291298740991, 0.05763860759307973, 0.27131222011414835, 203733000000, 
-0.04983087996468748, 0.14267706475893005, 0.2703722409102965, 203738000000, 
-0.11342044919322533, -0.01802343275307061, 0.27035893927053317, 203743000000, 
-0.05839794419573842, 0.06505202432368172, 0.26971148090222885, 203748000000, 
-0.04629202658438848, 0.14354071068276106, 0.26946714658338966, 203753000000, 
-0.10189903299715646, -0.033829503031006534, 0.2696953846579601, 203758000000, 
-0.011948194526845483, 0.1704100868081973, 0.2702746357070138, 203764000000, 
-0.07196659725452756, -0.03629282153468404, 0.270136361498229, 203769000000, 
-0.050700263766236396, 0.06308814687443368, 0.2710219072610193, 203774000000, 
-0.03332044437435025, 0.16130952606561855, 0.27137967178464806, 203780000000, 
-0.07931986730554692, -0.029128151962976724, 0.2724136737000266, 203785000000, 
-0.042247941479845987, 0.15771998262065223, 0.27333616144473993, 203790000000, 
-0.08390085585877234, -0.039546550204311366, 0.2733932806700709, 203795000000, 
-0.042435773272335525, 0.03281695869949325, 0.2739264224685015, 203800000000, 
-0.014289196554729013, 0.14591113652841925, 0.27359674018797525, 203805000000, 
-0.05122703050636623, -0.03171633052517685, 0.2729639078885921, 203811000000, 
-0.04171799551046361, 0.09309602575048276, 0.2720065413722418, 203816000000, 
-0.022827346595170273, 0.11700342191027273, 0.2702997052623903, 203821000000, 
-0.06963369098478892, -0.08815821439581883, 0.2696697560366391, 203826000000, 
-0.06620044091081637, 0.09191488858461032, 0.2686350766593812, 203831000000, 
-0.03861217800063254, 0.19134831941978472, 0.267086883791672, 203836000000, 
-0.06883699653734458, -0.006834010542304474, 0.2663470210864688, 203841000000, 
-0.07088782627196857, 0.08241405202312237, 0.265481983878937, 203846000000, 
-0.017163315534660262, 0.17069399320169762, 0.264936313585147, 203851000000, 
-0.05830107424685567, -0.018592566113849192, 0.26475474202437427, 203856000000, 
-0.08607620350840638, 0.15513819552308256, 0.2646265127616423, 203861000000, 
-0.07092879743161043, -0.006131442146329409, 0.26417125147448794, 203867000000, 
-0.09259395312383152, 0.0867458487158294, 0.264269039334453, 203872000000, 
-0.04344404908206412, 0.17055209360265522, 0.2640840620584786, 203877000000, 
-0.04220846723489378, -0.018378635885927568, 0.26362582225756676, 203882000000, 
-0.07478077235512341, 0.06849606949241974, 0.26389335154123167, 203887000000, 
-0.07043458905198308, 0.13443520797566938, 0.2632883948033897, 203894000000, 
-0.0886803226127234, -0.044162896409578226, 0.2627238613682422, 203899000000, 
-0.04459148774355136, 0.07599941098588686, 0.26289568709503536, 203904000000, 
-0.04914788768961005, 0.13040488305330283, 0.2619219780534724, 203909000000, 
-0.05965217861192108, -0.04326947794544514, 0.2622790669144616, 203914000000, 
-0.04848416419564094, 0.07613936296230382, 0.26275100158891024, 203919000000, 
-0.02837520550362226, 0.19667280468323406, 0.26231921945191367, 203924000000, 
-0.11874935501088466, -0.04701800826251003, 0.26248373897973915, 203929000000, 
-0.034268932986894, 0.05746902797375576, 0.26227295172821824, 203934000000, 
-0.026181106724750276, 0.15063243213679486, 0.26250071394802127, 203939000000, 
-0.07575990964500985, -0.042488840221865956, 0.26284774588711485, 203944000000, 
-0.004446990342685753, 0.07106893007918595, 0.2629140929701786, 203949000000, 
-0.06610418740879583, 0.059131356027984375, 0.26288347398865897, 203954000000, 
-0.047928712694971884, 0.06517736874696721, 0.2632639240273399, 203959000000, 
-0.02611128058134745, 0.1643116576754045, 0.263470431354051, 203964000000, 
-0.06907106563035066, -0.05098576573324102, 0.26348001031802654, 203969000000, 
-0.07603920757748495, 0.07817975843297023, 0.26292673101495023, 203974000000, 
-0.07348884408866295, 0.17538217391116795, 0.2622301717557558, 203979000000, 
-0.08595619465337719, -0.06416413820873922, 0.261304162365721, 203984000000, 
-0.07204525863520429, 0.09707514548750568, 0.2605682055650039, 203989000000, 
-0.039103238744290364, 0.15973673073423866, 0.2592789412222085, 203994000000, 
-0.05623547003212898, 0.003022989530243811, 0.25826811751529455, 203999000000, 
-0.0260324588046897, 0.056116435967854976, 0.2575089466189373, 204004000000, 
-0.0528165104987005, 0.07072289194368235, 0.25670515601463245, 204009000000, 
-0.06117968378795014, 0.05984691599224433, 0.2561916018324088, 204014000000, 
-0.06769015138680218, 0.07288574638835947, 0.25592876136459874, 204019000000, 
-0.07145640948260047, 0.08230996176424855, 0.25565200070799865, 204024000000, 
-0.08886070272965421, 0.06008818980414904, 0.2559659751430579, 204029000000, 
-0.0600721900432486, 0.15882895869978159, 0.2561768920788689, 204034000000, 
-0.08148883446099667, -0.02007488341407721, 0.25621159588737535, 204039000000, 
-0.038446945025298725, 0.09174052961294091, 0.25610110397299485, 204044000000, 
-0.019705026664999823, 0.06624209210375492, 0.25579738156354115, 204049000000, 
-0.03360228247576537, 0.05799209234329379, 0.25559349089451844, 204054000000, 
-0.028833673336896466, 0.17625902080761158, 0.2548157680923144, 204060000000, 
-0.08022187956861689, -0.011850462611945022, 0.2548180849373778, 204066000000, 
-0.039017693245840555, 0.11435584510649727, 0.2541538585555057, 204071000000, 
-0.047725404748573744, -0.040544756951442884, 0.2539676981031988, 204076000000, 
-0.046957897861711624, 0.09296531997077526, 0.25369402222119103, 204081000000, 
-0.03604258184436201, 0.16400717044125415, 0.25362881393302017, 204086000000, 
-0.09668013194555565, -0.03814642190023575, 0.2530390021324431, 204091000000, 
-0.039308115829744125, 0.055415065313621156, 0.2528176715741479, 204096000000, 
-0.00047162108884594295, 0.16353199796687415, 0.2533811401300205, 204101000000, 
-0.07814600140549403, -0.019334077590432753, 0.253312431825139, 204106000000, 
-0.03915095906177929, 0.13723027077964944, 0.25338370845624875, 204111000000, 
-0.041911001582155105, -0.019663923490593115, 0.25315254689364114, 204116000000, 
-0.07830450893141966, 0.0758435926395855, 0.2534760890603514, 204123000000, 
-0.052346411975372514, 0.07225287038483459, 0.25397651856560566, 204128000000, 
-0.07034580848771946, 0.05734011862121769, 0.25410705374195436, 204133000000, 
-0.05831550944977477, 0.1667333751241415, 0.2543584481797477, 204138000000, 
-0.08614042580664857, -0.07427348834217387, 0.25436856511363426, 204143000000, 
-0.034181952605075026, 0.13195015044394304, 0.2538218705623042, 204148000000, 
-0.06377132852210043, -0.03129470610357994, 0.2533418874734429, 204153000000, 
-0.03691451003087182, 0.09300083878316943, 0.2519072898763926, 204158000000, 
-0.0410449382676223, 0.1507817901585942, 0.2510850975280883, 204163000000, 
-0.05692216977752067, -0.007528267471642765, 0.2502770365681197, 204168000000, 
-0.050825061142224036, 0.07401376283861294, 0.2495820853502311, 204173000000, 
-0.04465507274054047, 0.15855100586143314, 0.24886424990576, 204178000000, 
-0.08111404660474296, -0.008703790307838662, 0.24828454830903138, 204183000000, 
-0.07160828101593397, 0.13961036659412426, 0.24813952768071354, 204188000000, 
-0.0820828124421373, 0.0011865703374481368, 0.247240372113003, 204193000000, 
-0.05766692865590022, 0.06146280307966318, 0.2477439830894339, 204198000000, 
-0.043462080464870725, 0.12835818390858417, 0.2474740966985318, 204203000000, 
-0.07031421773603962, 0.003111011647341032, 0.24787287169456004, 204208000000, 
-0.05428900499265975, 0.08087590796215861, 0.2481322957612117, 204213000000, 
-0.05616774709895724, 0.13041939649884468, 0.24859175652499194, 204218000000, 
-0.057831422367161364, -0.04027284169796464, 0.24937018374245234, 204223000000, 
-0.030799895958120816, 0.07323883425508722, 0.24951043530231576, 204228000000, 
-0.04608667801311958, 0.12738098763315736, 0.250504681460125, 204233000000, 
-0.09244930614317702, -0.026716247320878513, 0.25086779496006584, 204240000000, 
-0.0402998870177199, 0.12553557902507384, 0.2509215997284135, 204245000000, 
-0.035378748407938886, -0.022515596829330145, 0.25056259991489443, 204250000000, 
-0.07319575041375634, 0.06723737871583142, 0.24947536684766758, 204255000000, 
-0.02318605614781941, 0.16758025953989783, 0.24871695825141746, 204260000000, 
-0.06372927339494597, 0.019704035344228633, 0.24766564635170427, 204265000000, 
-0.0444644416160456, 0.0769414999219447, 0.24728823846174677, 204270000000, 
-0.015965118909082823, 0.14870504220522807, 0.24619645002611087, 204275000000, 
-0.06485393532543092, 0.010875737482028677, 0.24497612373496158, 204280000000, 
-0.024669754452068128, 0.06571567779544898, 0.24443206943642432, 204285000000, 
-0.07507860267054478, 0.1491468202412092, 0.24329076393248672, 204290000000, 
-0.053717802022646206, -0.023728434714575475, 0.2432493759364092, 204295000000, 
-0.05166422857430444, 0.1595797778393685, 0.24287441415147432, 204300000000, 
-0.09373470677137292, -0.014210665138732686, 0.24279071671747388, 204305000000, 
-0.06950744709844256, 0.0656661948656585, 0.2431426059839417, 204310000000, 
-0.012115869573200471, 0.15122597867770793, 0.24401053067530223, 204315000000, 
-0.06416021503278825, -0.037998867119169326, 0.24392010845312923, 204320000000, 
-0.07765614980116216, 0.09380755004105605, 0.2447723593813474, 204325000000, 
-0.031912918709081056, 0.1626237325456241, 0.2452011999251887, 204330000000, 
-0.06459880426593993, -0.03725431349659974, 0.2460144309595647, 204335000000, 
-0.03811239195675426, 0.1346740851192185, 0.24636516385895219, 204340000000, 
-0.05547552644349421, -0.004380758042782901, 0.24622631875942183, 204345000000, 
-0.0682190373936724, 0.05926229649633911, 0.24631587316898468, 204350000000, 
-0.04205117145497733, 0.14003804953354587, 0.24619043142361105, 204355000000, 
-0.05761444508120603, -0.011042093459038687, 0.24478529203121024, 204360000000, 
-0.04681387540039085, 0.06520343509775701, 0.24457347028553972, 204365000000, 
-0.05815097135300891, 0.1520030841779168, 0.24378839361426685, 204370000000, 
-0.07263799238194031, -0.013608722372797965, 0.2428286783122444, 204375000000, 
-0.03783790628712169, 0.06046349111864606, 0.24183694390244032, 204380000000, 
-0.06602097331271313, 0.13206576946993018, 0.24113784464385937, 204385000000, 
-0.06440489001801836, 0.021181546086355228, 0.24043929333201047, 204390000000, 
-0.07176593711272497, 0.056261960286219444, 0.2396657638033599, 204395000000, 
-0.05613821188241424, 0.11084559527684983, 0.23935501221252506, 204401000000, 
-0.08545130835456125, -0.07745858559816543, 0.23930484552553993, 204406000000, 
-0.06175406524278492, 0.04723035514146029, 0.23911906897536633, 204411000000, 
-0.04357639365836131, 0.1346084937263803, 0.2387726906086709, 204416000000, 
-0.08015841689632655, -0.01220086768889548, 0.2389450621257421, 204421000000, 
-0.04804959923926844, 0.08607687680650479, 0.23819728852435143, 204426000000, 
-0.05394268113116764, 0.15949709009280155, 0.23811050037854525, 204431000000, 
-0.06083181625200587, -0.015522363297390335, 0.2380675697130205, 204436000000, 
-0.011335790817751594, 0.053376885541276314, 0.23781737795091548, 204441000000, 
-0.04926802527890033, 0.168739416783435, 0.23755347275399663, 204446000000, 
-0.08520047291750847, -0.028660325953249827, 0.23750366469861672, 204451000000, 
-0.0679477153258817, 0.06731443667761058, 0.23755447027390922, 204456000000, 
-0.04275404394558655, 0.14179526297645997, 0.23733444453319774, 204462000000, 
-0.07684675364393148, -0.021490582055678536, 0.23780515768888802, 204467000000, 
-0.04992083573977136, 0.1383449101371364, 0.23740947351693942, 204472000000, 
-0.07067047871307543, 0.013437775527510274, 0.2377575766307219, 204477000000, 
-0.0495407345056195, 0.05900336935279197, 0.23813964304861604, 204482000000, 
-0.04791014080097482, 0.12842813198638037, 0.2375357136001993, 204488000000, 
-0.08295892106465756, -0.008555192127872976, 0.23808283145660997, 204493000000, 
-0.02567034560352298, 0.13248865936670645, 0.23811198464122357, 204498000000, 
-0.0732952370640105, -0.0036649527463414877, 0.2379638981177533, 204503000000, 
-0.06837261328335474, 0.045042614339347906, 0.23883936967180774, 204508000000, 
-0.05025565357382183, 0.16965394354202207, 0.23839077403823797, 204513000000, 
-0.09366500045288637, -0.04848121163820139, 0.23803303900408182, 204518000000, 
-0.06638448300122304, 0.08908153754146765, 0.23790344906149324, 204523000000, 
-0.0240429769400054, 0.13774778353756298, 0.23701038535611818, 204528000000, 
-0.07382576824133422, -0.006690426092373372, 0.23571901030730627, 204533000000, 
-0.08176164078401874, 0.07305639459116947, 0.23527009484358044, 204538000000, 
-0.042509952259031175, 0.15473321262138953, 0.23453722906147295, 204543000000, 
-0.08842828870462068, -0.016090492536746027, 0.23359037721802617, 204549000000, 
-0.044042721357875944, 0.13767684002426106, 0.2328561483458515, 204554000000, 
-0.08010328947041372, -0.016347336191873806, 0.23235143220405974, 204559000000, 
-0.036933979882381666, 0.0981395298259963, 0.23197266812195094, 204564000000, 
-0.05839651281180058, 0.1555427074377611, 0.23175548582857838, 204569000000, 
-0.07902623748327055, -0.011875335872168918, 0.2321319274093314, 204574000000, 
-0.09185777840591745, 0.06042658886696558, 0.23246992354027382, 204579000000, 
-0.044222981702399085, 0.05931892435183607, 0.23269647832277437, 204584000000, 
-0.06177460435468638, 0.04806395485211466, 0.2325650347063546, 204589000000, 
-0.018238185599077857, 0.12626689851561637, 0.2337509897223216, 204594000000, 
-0.10349035915696753, -0.02100813883990221, 0.23417472904062017, 204599000000, 
-0.04662395897556372, 0.09711192303244459, 0.23444143260771097, 204604000000, 
-0.05000555381852208, 0.1571602938581955, 0.23473306185491305, 204609000000, 
-0.06778874901932322, -0.005993225772026276, 0.23529539988928083, 204614000000, 
-0.03142105085299826, 0.09881359436551357, 0.23532959796873118, 204619000000, 
-0.052638190321533586, 0.005565894383588364, 0.23461703649315452, 204624000000, 
-0.059529556901140875, 0.050880066013826636, 0.23419491266553227, 204629000000, 
-0.02320411860674156, 0.1266669635131817, 0.2333209719772572, 204635000000, 
-0.057723350336048, -0.00930020726999499, 0.23236102299108305, 204641000000, 
-0.07774302621648083, 0.08422534814786238, 0.23114049651276347, 204646000000, 
-0.049386811791677906, 0.07267538798257403, 0.23051653651230622, 204651000000, 
-0.08876615097609851, 0.07774843116285304, 0.2298919702606325, 204656000000, 
-0.020080767660347342, 0.15520778078766895, 0.22915235886283244, 204661000000, 
-0.05768541271908596, 0.002848673085384862, 0.2284658686129497, 204666000000, 
-0.056657236607188126, 0.08774283872691184, 0.22848571835182077, 204671000000, 
-0.0421993339388837, 0.1804330114903398, 0.22803847414321596, 204676000000, 
-0.03331623984134033, -0.01759333186467314, 0.22802892243357814, 204681000000, 
-0.05966896627715264, 0.086785703833626, 0.22808944654850566, 204686000000, 
-0.03706565440844949, 0.18908935695321183, 0.22761024680074415, 204691000000, 
-0.07470812518316483, -0.018397777189758782, 0.2276494785282129, 204696000000, 
-0.03340465597643221, 0.05844362423612354, 0.2278314378588731, 204701000000, 
0.0016674055008587055, 0.1621404023320321, 0.22691448019482152, 204706000000, 
-0.08117788650642044, -0.028981489866291097, 0.22731301597860465, 204711000000, 
-0.07501693381679822, 0.11534802323421768, 0.22692414178092027, 204716000000, 
-0.056857008062460926, -0.046686726136208556, 0.22690325462830396, 204721000000, 
-0.020223282189306906, 0.03807261169070704, 0.2268492286048667, 204726000000, 
-0.04847261765742209, 0.12260184034518491, 0.2266269388013916, 204731000000, 
-0.09393271834730399, -0.028491946308148615, 0.22663776573118855, 204736000000, 
-0.042668464885947166, 0.1043919827393219, 0.2270414686417707, 204741000000, 
-0.045792957841566194, 0.13032632856609616, 0.22648577442490375, 204746000000, 
-0.11076557912859694, -0.0029759243810842054, 0.22683506821113272, 204751000000, 
-0.07688479347785176, 0.08239624059572963, 0.227326962231986, 204756000000, 
-0.04422530177315956, 0.13044074629761354, 0.2267984771323583, 204761000000, 
-0.06254439045806616, 0.0138138143580307, 0.22733590916500038, 204766000000, 
-0.055527798822387175, 0.11543667455126494, 0.2277749140956822, 204771000000, 
-0.05683870981367931, -0.019093404177063317, 0.22746513324118003, 204777000000, 
-0.07097521567635354, 0.060603683321634114, 0.22755082666017604, 204782000000, 
-0.04554863813159194, 0.1681209812678516, 0.22705705577241234, 204787000000, 
-0.0793054226739093, -0.03510905159563048, 0.22690772365334533, 204792000000, 
-0.07348131803609792, 0.09688044335383084, 0.2268132879179071, 204797000000, 
-0.05386857672043242, 0.15588694904678152, 0.22515289650508172, 204802000000, 
-0.083216515840936, -0.03442558126470492, 0.22465032915387567, 204807000000, 
-0.07334691113843923, 0.08963716144835521, 0.223971637838721, 204812000000, 
-0.03006167164947881, 0.160246212637579, 0.22376410339158795, 204817000000, 
-0.07161273977395818, -0.02694752965587737, 0.2229637707325401, 204822000000, 
-0.04001129189904932, 0.13404868671562922, 0.22254623285788436, 204827000000, 
-0.03277846635524914, 0.011489120141266847, 0.22195138914389276, 204832000000, 
-0.07478303049370097, 0.04661003236931974, 0.22192288192473936, 204837000000, 
-0.03003539322461671, 0.11689761652375724, 0.22207593570287987, 204842000000, 
-0.06084271586679989, 0.009879884123171302, 0.22239829598230354, 204847000000, 
-0.034354151401154415, 0.13679334960128708, 0.222204068181612, 204852000000, 
-0.0320525116043628, 0.07110732902158907, 0.2215802780907084, 204857000000, 
-0.0451376510505913, -0.013381016234561815, 0.22193284995511597, 204862000000, 
-0.07111004144571254, 0.09001550329005022, 0.22192324313978035, 204867000000, 
-0.0747716087345917, 0.08831161093888615, 0.22134839741516174, 204872000000, 
-0.07136705792314539, 0.036729257187627595, 0.22131431219092107, 204877000000, 
0.0024363524735277198, 0.1343169812712735, 0.2207107077255785, 204882000000, 
-0.08487654183749846, 0.022983171606840096, 0.22028242770889003, 204889000000, 
-0.055187930053220285, 0.06443185000699975, 0.22029479547405256, 204894000000, 
-0.042735310608776056, 0.16206941793491694, 0.22037647658661663, 204899000000, 
-0.05879545217782213, 0.001163525352551478, 0.22011886352755308, 204904000000, 
-0.050133544400544766, 0.06973902935228768, 0.2199972318803746, 204909000000, 
-0.0669993521396934, 0.13943129516533967, 0.2197333748542124, 204914000000, 
-0.08425235788816773, 0.0021571753610790667, 0.2198143764480876, 204923000000, 
-0.04382593709832406, 0.1652435882607982, 0.21992318079121514, 204928000000, 
-0.08720939514085957, 0.0017834916599647962, 0.22010398263732156, 204933000000, 
-0.08043114815777985, 0.04692342438461666, 0.22063091462169623, 204938000000, 
-0.05033824294423371, 0.1200850254087563, 0.22073980777699387, 204943000000, 
-0.09298017296480546, 6.282779516589287e-05, 0.2206554590488677, 204948000000, 
-0.07255601544342051, 0.09534127970728128, 0.22049072866523045, 204953000000, 
-0.03437882094508584, 0.14452641433165972, 0.22041234819412314, 204958000000, 
-0.08152541102421675, 0.011045610145574015, 0.21993259755712768, 204963000000, 
-0.039474655401638956, 0.04859814851282185, 0.21963653221451068, 204968000000, 
-0.04893969543761122, 0.168442666127018, 0.21904937036304847, 204973000000, 
-0.029936689029046143, 0.005270317165939986, 0.2180300227824146, 204978000000, 
-0.0736786452810651, 0.048098779480727515, 0.21806867939735033, 204984000000, 
-0.03968707607758757, 0.12183550628896854, 0.21713950149089487, 204989000000, 
-0.07339010748421723, -0.035517756698258185, 0.21666383389895277, 204994000000, 
-0.06850195673654119, 0.05994153737805228, 0.21576328314062995, 204999000000, 
-0.049685943980128364, 0.11681947510283483, 0.21587541317930067, 205004000000, 
-0.07356752755563667, -0.027402012758429205, 0.21502155076391805, 205009000000, 
-0.05127174453415008, 0.08134689260820542, 0.21536671792562911, 205014000000, 
-0.05331513154431092, 0.11453517617257988, 0.215214971111785, 205019000000, 
-0.0832398985978273, 0.004675696711974799, 0.215496836516419, 205024000000, 
-0.04898627857452359, 0.06074819934698135, 0.21612250155548698, 205029000000, 
-0.03733445411742618, 0.10606504415438783, 0.2162636207859203, 205034000000, 
-0.08111628237495316, -0.003802683473123559, 0.21641129493268782, 205039000000, 
-0.039100958416757696, 0.1148905251569745, 0.21711924500119817, 205044000000, 
-0.06023610535320598, 0.04015934947440683, 0.2179130007553913, 205050000000, 
-0.08897067285969477, 0.07961359993012282, 0.21814630850811684, 205055000000, 
-0.03745259431334412, 0.1332820841280171, 0.21801753299117213, 205060000000, 
-0.08059569115320128, 0.019075545351360024, 0.21769725835861725, 205065000000, 
-0.021700046096943492, 0.12205259240299562, 0.21723876307313938, 205070000000, 
-0.05091728592212036, -0.009524282577151714, 0.21649905035413813, 205075000000, 
-0.05129659479760908, 0.07238438297342713, 0.21569937097643868, 205080000000, 
-0.04562808969084859, 0.11561489055321375, 0.21519507216485168, 205085000000, 
-0.08069664674792955, -0.01942485915797009, 0.2142674302335201, 205090000000, 
-0.07950210210001193, 0.05995941015764638, 0.21376689620053257, 205095000000, 
-0.06982972774412692, 0.052024697010332986, 0.21283896049994663, 205100000000, 
-0.06020239267399941, 0.04439762771544474, 0.213140328123143, 205105000000, 
-0.029207423777347107, 0.13100802617381677, 0.21277050487985613, 205110000000, 
-0.07922129423524985, -0.005120950903825824, 0.2122448552835696, 205115000000, 
-0.062275420931731454, 0.053569324977077074, 0.21197481104533938, 205120000000, 
-0.024087324723862456, 0.07044226460264277, 0.21260862697235014, 205126000000, 
-0.052211426627515704, 0.0854229019371166, 0.21295533483832257, 205131000000, 
-0.027915581973543484, 0.12561329279117037, 0.21263082390865579, 205137000000, 
-0.05343432793875623, -0.052454908841704284, 0.2133564478285032, 205142000000, 
-0.06415850248659015, 0.04431126109421445, 0.21371959033292254, 205147000000, 
-0.047312685407463535, 0.13968943763800207, 0.21441703884772143, 205152000000, 
-0.06727390241033522, -0.00018053123323769245, 0.21492173197683756, 205157000000, 
-0.03847881101984655, 0.1317121265399879, 0.21478869799499825, 205162000000, 
-0.08617870609100897, 0.006950133288306537, 0.21443188579147304, 205167000000, 
-0.051120201416809785, 0.06758451861632676, 0.21421370793465397, 205172000000, 
-0.0330354533090162, 0.11945259335419162, 0.21376663500117676, 205177000000, 
-0.05908902953639756, -0.003119835002375093, 0.21285755368045625, 205182000000, 
-0.06224318659166932, 0.044582281575143455, 0.21257325530439578, 205187000000, 
-0.03687732547138318, 0.12793748648545417, 0.21208967487636876, 205192000000, 
-0.06683162986476736, -0.02389604776668912, 0.2113180566838271, 205197000000, 
-0.05801765064455406, 0.060884390899685906, 0.21029509846417235, 205202000000, 
-0.01500065773778914, 0.12847339405614475, 0.21021803383750343, 205208000000, 
-0.06594885260616883, -0.029557221820501283, 0.2095460290727199, 205213000000, 
-0.06289795543518423, 0.024726244429266908, 0.20949227665785985, 205219000000, 
-0.059886033586105336, 0.15315397210101991, 0.20876600622823283, 205224000000, 
-0.07264855978286686, -0.03803914228229803, 0.20956733220982218, 205229000000, 
-0.0714879054910296, 0.10015855379355139, 0.2091645351364369, 205235000000, 
-0.060407978112635846, -0.005275429900740968, 0.2087278214543137, 205241000000, 
-0.06828015209476163, 0.057432028776390386, 0.20880686782762245, 205246000000, 
-0.032512292786810344, 0.11517493307212838, 0.20833950047731647, 205251000000, 
-0.10031076720966739, -0.01883920082175907, 0.20822056744352568, 205256000000, 
-0.032217287282036794, 0.12332642178100765, 0.2082120997473371, 205261000000, 
-0.08028120402166558, 0.00598061196540128, 0.20794086766761116, 205266000000, 
-0.0924533584041935, 0.07147622376619664, 0.2076585953935851, 205271000000, 
-0.06037304143067926, 0.11958790650125077, 0.20778021271291733, 205276000000, 
-0.06182169961116372, 0.021366326282032465, 0.20773850914944864, 205281000000, 
-0.05544824413470693, 0.03034205545528741, 0.20786067142198683, 205286000000, 
-0.043841990230583085, 0.10220762608837175, 0.20773671040907074, 205291000000, 
-0.04911129234730627, -0.03142730659227032, 0.2079780978757969, 205296000000, 
-0.058507988927267, 0.05321884902402719, 0.20827379946175212, 205301000000, 
-0.03603285672962586, 0.14319637106138022, 0.2085970374395141, 205306000000, 
-0.09321689338171893, -0.040252214371300395, 0.208197934723841, 205311000000, 
-0.06420136452044646, 0.06433892684293183, 0.2082169336798891, 205317000000, 
-0.01672107721548228, 0.07655324673549868, 0.20851995974309911, 205322000000, 
-0.07566186752085785, 0.06217092699251332, 0.20887864726725022, 205330000000, 
-0.0576677823912498, 0.1421661979734061, 0.2082581190481576, 205335000000, 
-0.08692545193962492, -0.01667855128254945, 0.2079944434271338, 205340000000, 
-0.04466677152555569, 0.14706327989446294, 0.20714737570250466, 205345000000, 
-0.05977652263219621, 0.011810619133010108, 0.20648161470318324, 205350000000, 
-0.0403659183730761, 0.05788487252781401, 0.20600142324825446, 205355000000, 
0.00010699881654898519, 0.11735421970243344, 0.2054133102920234, 205360000000, 
-0.06119925503016236, -0.058602508068688774, 0.20469242299035134, 205365000000, 
-0.0597711189614138, 0.037046633218395894, 0.20440518171578978, 205371000000, 
-0.04275649850135134, 0.15412252233673235, 0.20408772343287895, 205376000000, 
-0.05294753353850462, -0.03241107656939663, 0.20391095439312523, 205381000000, 
-0.051245204639990986, 0.05373289643386284, 0.20387771962740092, 205386000000, 
-0.04791189747034178, 0.12971714021545613, 0.2039670135588758, 205391000000, 
-0.07697607262379325, -0.0052028317321939355, 0.20396187142298855, 205396000000, 
-0.0616595180266002, 0.06868938987844178, 0.20410054190721644, 205401000000, 
-0.051887667850630564, 0.11806380174617824, 0.2047171531482498, 205406000000, 
-0.057060811428204995, -0.003829968831647639, 0.2049468091898025, 205411000000, 
-0.07448047948944969, 0.06384975065328104, 0.20529922407491555, 205416000000, 
-0.035019178452079636, 0.13774322842995929, 0.20528602497905013, 205421000000, 
-0.07756777615975634, -0.016959067792782632, 0.2060415867163641, 205426000000, 
-0.03295825829113461, 0.13655254638528885, 0.20599444586532514, 205431000000, 
-0.03695683853102061, -0.012761729914186323, 0.20606260563430498, 205436000000, 
-0.05490823025002034, 0.04678089285095158, 0.20560342457095654, 205441000000, 
-0.04874829625705179, 0.1145492001035753, 0.20500351423333935, 205446000000, 
-0.04068829818694236, -0.0044775073243991815, 0.20482197126205567, 205451000000, 
-0.053105372496511316, 0.12351603184930812, 0.2038643197703676, 205456000000, 
-0.06792291469134157, 0.037500139688234055, 0.20272044921689983, 205461000000, 
-0.07424476125965299, 0.07107289559297447, 0.20262405515157328, 205466000000, 
-0.06098603926281511, 0.10871750866000886, 0.20203571042361812, 205471000000, 
-0.06863562680997314, 0.003907783244895121, 0.2010364405400047, 205476000000, 
-0.04810153778987854, 0.13177390473450026, 0.20089096337811796, 205481000000, 
-0.06203045295430553, -0.014994825468124902, 0.20068905655055652, 205486000000, 
-0.02164813362043909, 0.08258849098413033, 0.201096158278461, 205491000000, 
-0.0332663813318861, 0.11824385101904385, 0.20088621796794076, 205496000000, 
-0.07406095490613968, -0.005781480087490498, 0.20057844134937683, 205501000000, 
-0.048188678870759685, 0.08145910652466003, 0.20063194144880342, 205506000000, 
-0.02607030347284749, 0.15291554166049073, 0.20026748765481447, 205511000000, 
-0.08004132242646447, -0.0386359134909971, 0.20041036380398525, 205516000000, 
-0.08506252853307898, 0.05404745919260313, 0.20036756915687373, 205521000000, 
-0.05761486260133333, 0.10705089783520702, 0.19996719534463248, 205526000000, 
-0.06218333369505434, 0.00019477465168345892, 0.20004108654747343, 205531000000, 
-0.039158039662156474, 0.07249659961246314, 0.19983031140298851, 205536000000, 
-0.049010960879200045, 0.1183593957849611, 0.19949033256358314, 205541000000, 
-0.0560011942178605, -0.015870279866429603, 0.19932638152858656, 205546000000, 
-0.055683093533554585, 0.06432706908855493, 0.19972832563973203, 205551000000, 
-0.03064354571870314, 0.1155215462699559, 0.19942184143382363, 205556000000, 
-0.07552718503527968, -0.0030899264941050466, 0.1995048135893182, 205561000000, 
-0.07847096305721275, 0.0365986051887377, 0.19943042735509242, 205566000000, 
-0.05672616349140874, 0.1674340770512166, 0.19968234354766076, 205572000000, 
-0.099842617783377, 0.02662926349116944, 0.19986398038922487, 205577000000, 
-0.02354340805016851, 0.12359051902917194, 0.1996751088549443, 205582000000, 
-0.051524622067771864, -0.035237600241648036, 0.20002940183393442, 205587000000, 
-0.05238878128269523, 0.031719418331292354, 0.2001457241067852, 205592000000, 
-0.032939549204614796, 0.04994156634945813, 0.19992212850820393, 205599000000, 
-0.06906694631692434, 0.041559276780922194, 0.20007675096898142, 205604000000, 
-0.051727496170452275, 0.09864314237884311, 0.1995609345327776, 205609000000, 
-0.05285554771574834, -0.022662853408065644, 0.19954657537380843, 205614000000, 
-0.028767133486333828, 0.074172317006975, 0.19877921382479935, 205619000000, 
-0.045205159817534445, 0.05725007921957862, 0.19786180989486857, 205625000000, 
-0.06387663874937803, 0.065424612889481, 0.19780582512984302, 205630000000, 
-0.08839863360878632, 0.1030778769205472, 0.19671053517007214, 205635000000, 
-0.0664094736824353, -0.06695484667440617, 0.19621128670829813, 205640000000, 
-0.054893168079723026, 0.060160610145055096, 0.19639654590239938, 205645000000, 
-0.04680390097112991, 0.08937407678172739, 0.19577556959828687, 205650000000, 
-0.05850747100991855, 0.05456063058691388, 0.19554411925869808, 205655000000, 
-0.05322147875943925, 0.12302422805747532, 0.19550975339927162, 205660000000, 
-0.05826570342007158, -0.02834623977336745, 0.19565410138856476, 205665000000, 
-0.07322199825214913, 0.04557519262432323, 0.19626068397894852, 205670000000, 
-0.04549452703043472, 0.11183532892831534, 0.19614936535569624, 205675000000, 
-0.0792981053585325, -0.059211128417228365, 0.1966100748982962, 205680000000, 
-0.05966816792637614, 0.04261450815368574, 0.19687435799194877, 205685000000, 
-0.05525166450534545, 0.07341359390074337, 0.1972238610299311, 205690000000, 
-0.04045140642603237, 0.0880297344307378, 0.1971887538942006, 205695000000, 
-0.026994087341208593, 0.10103857984842768, 0.1975901291660807, 205700000000, 
-0.04195022408260811, -0.000895295196208604, 0.19803210802066726, 205705000000, 
-0.05021187291303132, 0.057380197073970934, 0.19789133864051464, 205710000000, 
-0.02954575706315784, 0.11143960431103174, 0.19700953165857102, 205715000000, 
-0.08303114101324258, -0.021912702678870646, 0.1971437405991341, 205720000000, 
-0.03628870570463388, 0.08034321611524656, 0.1962639990161481, 205725000000, 
-0.06397029076101086, 0.1217535851503157, 0.19608731622124856, 205730000000, 
-0.07417698160383979, -0.02697118423251211, 0.19487652576984926, 205735000000, 
-0.05394757507841033, 0.05201837609500253, 0.1944910316520284, 205740000000, 
-0.05307707313922478, 0.13690119871520837, 0.1939552758862165, 205745000000, 
-0.07615367651496155, -0.021493194222798297, 0.1936607539996422, 205750000000, 
-0.0679023373171764, 0.031662656693981744, 0.1930956903658883, 205755000000, 
-0.06948053560129566, 0.12588080565922227, 0.19290535608934134, 205760000000, 
-0.07286138022155762, -0.02860088140618805, 0.192884194007039, 205765000000, 
-0.029284862520855687, 0.08309203845191225, 0.19323366513405593, 205770000000, 
-0.07305354048238968, 0.13430586905410047, 0.1936291259839573, 205775000000, 
-0.06082827307821215, -0.011364255583554451, 0.19341128780564154, 205780000000, 
-0.04942818488204751, 0.0955471978484434, 0.19350673478084798, 205785000000, 
-0.06229970241398229, 0.12351403599506522, 0.19416866592150397, 205790000000, 
-0.07738984771862209, 0.003886591717353876, 0.1948072080561413, 205795000000, 
-0.03553969251151749, 0.08468848016803249, 0.19498327226235798, 205800000000, 
-0.03653942823736351, 0.11106647113041714, 0.19527737943210344, 205805000000, 
-0.07736376917460148, -0.011362559733708229, 0.1951944346017752, 205810000000, 
-0.06351121741325402, 0.07553554947715045, 0.195106199725254, 205815000000, 
-0.027482949435263415, 0.13031767967896024, 0.19472026402958426, 205820000000, 
-0.07455999765501978, -0.012755968876162295, 0.19396841287587616, 205825000000, 
-0.07777640312640113, 0.08077852787356984, 0.19350438035051118, 205830000000, 
-0.05406695432489099, 0.10129024254165464, 0.1929951618513045, 205835000000, 
-0.042211322473984, -0.013816442183264228, 0.19248214086938537, 205840000000, 
-0.064751836768285, 0.07587053327558825, 0.1918270922469312, 205845000000, 
-0.03350655835012374, 0.10850432060262163, 0.19121159281487707, 205850000000, 
-0.046613213990443436, -0.02690893476189338, 0.190790716349942, 205855000000, 
-0.06562260523288381, 0.06735044196877221, 0.19066342664430208, 205860000000, 
-0.058499759718173, 0.10052514954988213, 0.19073163168301094, 205865000000, 
-0.046468482523823906, 0.03934405527826326, 0.19087055696463726, 205870000000, 
-0.038456968324881186, 0.053232263443110335, 0.19083305561010255, 205875000000, 
-0.06077148977057698, 0.13267647521007137, 0.19104217771626764, 205880000000, 
-0.02776071527194022, 0.008571592782062182, 0.19124585266249333, 205885000000, 
-0.028958904509260735, 0.06955244132811929, 0.1916398458675998, 205890000000, 
-0.03929904391764672, 0.14364766911038912, 0.19192617140791676, 205895000000, 
-0.0653119486449422, 0.004525496767728867, 0.19195550462695934, 205900000000, 
-0.05966016057951776, 0.07855403755146623, 0.19239690964938366, 205905000000, 
-0.07491532095941833, 0.0030003627011467426, 0.19264678337973623, 205910000000, 
-0.048479581824929355, 0.07089244764884334, 0.19248203400495703, 205915000000, 
-0.04264015069982705, 0.12044491318751027, 0.1919871277160761, 205920000000, 
-0.07324499056932851, -0.02757452291253984, 0.19177078441296905, 205925000000, 
-0.04025631608652647, 0.16354174001932736, 0.19110066594529673, 205930000000, 
-0.0676330972806118, -0.01111303121363733, 0.19083062792866157, 205935000000, 
-0.05160594966308482, 0.04509732785254797, 0.19052566772344337, 205940000000, 
-0.04100859492533197, 0.06496910894896331, 0.18941474197862637, 205945000000, 
-0.04099305092638196, 0.058341395936068324, 0.18905653321133015, 205950000000, 
-0.06300091380867698, 0.09162193965544091, 0.18846755411479785, 205955000000, 
-0.06617333018615847, -0.006556925013747206, 0.1884041573686168, 205960000000, 
-0.046632642156838315, 0.11171079406997014, 0.1881082820491069, 205965000000, 
-0.06384908181600737, 0.018610137064616353, 0.1884542750118566, 205970000000, 
-0.07136993309993438, 0.0453742300639889, 0.18838416884353668, 205975000000, 
-0.03423419556618291, 0.1360709856497248, 0.18820037940531534, 205981000000, 
-0.05065793467962226, 0.007213601627453029, 0.18803071071499258, 205986000000, 
-0.04237874226015825, 0.0866061836253657, 0.18808614198982138, 205991000000, 
-0.07104536556842289, -0.031280645753346326, 0.18759471662275165, 205996000000, 
-0.070190097748372, 0.0770018827561117, 0.18766994508920753, 206001000000, 
-0.042803350791762285, 0.1318982121833058, 0.1874262427940376, 206006000000, 
-0.07598837968880555, -0.008519068323518897, 0.18720286827809654, 206011000000, 
-0.07149181577972802, 0.03269006805460857, 0.1871065501503825, 206016000000, 
-0.06919611073346259, 0.09238540113074131, 0.18710614565769418, 206021000000, 
-0.04522831589584163, -0.01850772167114856, 0.18687878913367945, 206026000000, 
-0.07481115023479233, 0.14883001701032533, 0.1869495870932577, 206031000000, 
-0.07539360796154965, -0.029568044517744276, 0.1869505303357129, 206036000000, 
-0.0264819299156088, 0.044395229098829474, 0.18709116279512586, 206041000000, 
-0.06769622459659483, 0.12562372778978498, 0.18736127242101303, 206046000000, 
-0.07352990927689668, -0.017451799182145053, 0.18732880523647266, 206051000000, 
-0.07768201682812816, 0.04174493795972204, 0.18747682282543746, 206056000000, 
-0.043091959225499715, 0.1403114189672784, 0.18749270306310606, 206061000000, 
-0.08143559687769868, -0.04001401631395518, 0.18739557001046378, 206066000000, 
-0.07297241897107877, 0.023774472145996886, 0.18784762787078524, 206071000000, 
-0.02221307205519442, 0.040220279730528385, 0.18781151207386068, 206076000000, 
-0.08562373701696815, 0.061881201392640285, 0.18750166759577017, 206081000000, 
-0.033191987394751536, 0.1044544629029151, 0.1869067130326181, 206086000000, 
-0.06258175088517144, 0.004621916677252357, 0.18678899495744092, 206092000000, 
-0.05871810026189391, 0.039576192107916006, 0.18648928813204413, 206097000000, 
-0.04450670084114849, 0.1426620601361931, 0.18572363497567923, 206102000000, 
-0.0871914042432988, -0.009529202419043748, 0.18480378252722057, 206107000000, 
-0.04192100318902274, 0.10863294446040624, 0.1846550096925638, 206112000000, 
-0.11848177690829995, -0.03191338331071339, 0.18447264925139914, 206117000000, 
-0.048684096963415344, 0.053235068568116446, 0.18404515881085756, 206122000000, 
-0.04765542592822809, 0.12010374241089568, 0.18394749397657675, 206127000000, 
-0.06045233366263394, -0.042262469511040304, 0.1834410323531737, 206132000000, 
-0.0802185313076738, 0.11890705786344767, 0.18366131500559882, 206137000000, 
-0.06997198896867962, -0.010071207853348713, 0.18401018707861017, 206142000000, 
-0.07772933830681455, 0.04009888295251032, 0.184080753870448, 206147000000, 
-0.044324779364642436, 0.06398362597398778, 0.18433063536935312, 206152000000, 
-0.0610895068330971, 0.05298444890010348, 0.18489508652559572, 206157000000, 
-0.04096109717395914, 0.10653431376577449, 0.18476907529858347, 206162000000, 
-0.061067502397125266, -0.005193862759089325, 0.18485553440192223, 206167000000, 
-0.03606948357056768, 0.11508354913068367, 0.18547324386553568, 206173000000, 
-0.06868328757461994, -0.0012061487514956107, 0.18520613747799533, 206178000000, 
-0.07612186733201204, 0.044492825514304904, 0.18582716396429522, 206183000000, 
-0.04400571201445112, 0.06767357861060944, 0.18501552569319074, 206188000000, 
-0.05537614008084061, 0.06890147014827369, 0.18506970142978407, 206193000000, 
-0.072112206701083, 0.09524423900903968, 0.18463841023094024, 206198000000, 
-0.06746920818533218, -0.027654156171220225, 0.1842547525533332, 206203000000, 
-0.026717912255741057, 0.1050401018526243, 0.18343756487094265, 206208000000, 
-0.04047416778565546, -0.0031481160427264563, 0.1830846242666013, 206213000000, 
-0.0596512758531454, 0.04621732596290188, 0.18230378835495373, 206218000000, 
-0.03467520271768008, 0.12363016350493432, 0.18255994938571715, 206223000000, 
-0.07591194904934413, -0.012967813693323602, 0.18137532266163958, 206228000000, 
-0.02844808908233287, 0.08645946733841765, 0.1815274737780625, 206233000000, 
-0.07988686320582986, 0.09175938696006325, 0.18169542293102894, 206238000000, 
-0.033846250525805886, 0.0015370656493840819, 0.18162941824213813, 206243000000, 
-0.049243521039260635, 0.0926648377383062, 0.18106723146355422, 206248000000, 
-0.04970912904043358, 0.11018114415809904, 0.18134656085517656, 206253000000, 
-0.08627471180176785, -0.020067451276649814, 0.18083139920442112, 206258000000, 
-0.04689757366287314, 0.05590452029811881, 0.18118813790511906, 206263000000, 
-0.029634735561911693, 0.0893354218659437, 0.18104158811997922, 206268000000, 
-0.052437669472157444, 0.007603378579195717, 0.18093373670538143, 206273000000, 
-0.05392265145289759, 0.05307589253695611, 0.18092408512959754, 206278000000, 
-0.04400933169945463, 0.10424274653350363, 0.18092559407746198, 206283000000, 
-0.026114770496459536, -0.03575908979790235, 0.18021736296966082, 206288000000, 
-0.07385619104509805, 0.07895150139552563, 0.18040179025680228, 206293000000, 
-0.019824478097987493, 0.11422505576907734, 0.18051884855515427, 206298000000, 
-0.07301025917196872, -0.012649581949747983, 0.18062668253610684, 206303000000, 
-0.059996692059617836, 0.09232745481637575, 0.18070966407101707, 206308000000, 
-0.032943205013510335, 0.10790443194759937, 0.18046326324615755, 206313000000, 
-0.07516801451046604, -0.013381918953259813, 0.18046280156212083, 206318000000, 
-0.04869720807276924, 0.059127142072817114, 0.18065931061416338, 206323000000, 
-0.057761227643939504, 0.09095173793731332, 0.18044340036382772, 206329000000, 
-0.09397988449310374, 0.0039002318462917716, 0.180578341311329, 206334000000, 
-0.05787642278193737, 0.04899265430991645, 0.18098518603854252, 206339000000, 
-0.04662913708456178, 0.13337094646642508, 0.18108137665226637, 206344000000, 
-0.046878949916092344, -0.023592509443320246, 0.18100634815578462, 206349000000, 
-0.04936348336137905, 0.07688959327022497, 0.18093532290798342, 206355000000, 
-0.05815780873191231, 0.11413030019879258, 0.18006109125542907, 206360000000, 
-0.09195917997185457, 0.028044335389029777, 0.17992520113280583, 206366000000, 
-0.0488747465340761, 0.08130608446026555, 0.17921607501180573, 206371000000, 
-0.03739036975856637, -0.01015933412248259, 0.17873465822681395, 206376000000, 
-0.04262224955207086, 0.03970045816996873, 0.17826816592667258, 206381000000, 
-0.0666496431773005, 0.11783803681474213, 0.1776396708806814, 206386000000, 
-0.0523117792665576, 0.01719053273159804, 0.17734409155538688, 206391000000, 
-0.055200536300486915, 0.0012510503906384488, 0.1773051878939314, 206396000000, 
-0.059885755578719946, 0.0666424390381874, 0.1772907437689327, 206401000000, 
-0.07904101066135472, 0.015243624906628882, 0.17747196620634603, 206406000000, 
-0.07642308047565453, 0.024009332243098293, 0.17736551869909079, 206411000000, 
-0.08680748236575903, 0.11040782179571579, 0.17747261693053734, 206416000000, 
-0.09938221029578774, 0.014091444676980033, 0.17726068328890593, 206421000000, 
-0.0760730093926427, 0.04878537879370832, 0.17783554840437238, 206426000000, 
-0.04395412023299844, 0.09126894797554194, 0.17823199220259678, 206431000000, 
-0.08275018734365339, -0.003268009514571237, 0.17853073330430674, 206436000000, 
-0.06407113747026787, 0.13010051162042344, 0.17859927071076995, 206441000000, 
-0.033213769092468676, -0.004323279740355697, 0.1789503727947443, 206446000000, 
-0.03973857385245291, 0.06180142652942065, 0.17827685904594642, 206451000000, 
-0.038255691670534976, 0.13724750099493618, 0.17876466133424113, 206456000000, 
-0.06119156400526199, -0.02774768428337724, 0.17877274473168445, 206461000000, 
-0.06259426915049685, 0.0550943262185172, 0.17834627715906365, 206466000000, 
-0.03633128677143956, 0.09119100465725995, 0.17793747948599065, 206471000000, 
-0.05976801517343579, -0.006224089696905287, 0.17721640463515187, 206476000000, 
-0.036058763479409145, 0.12066673367162517, 0.1770850872433727, 206481000000, 
-0.033156161610901014, 0.004949353468698423, 0.17656761425316064, 206487000000, 
-0.03319240798271673, 0.04585877799247986, 0.17608129489454039, 206492000000, 
-0.05874314528282794, 0.1105845932857739, 0.17578116843377778, 206497000000, 
-0.09194935443889989, 0.012812680950163084, 0.17517545176501523, 206502000000, 
-0.0633973250865225, 0.08301907949765236, 0.17482095221130095, 206507000000, 
-0.05133679065611993, 0.13045596970359669, 0.174940243088774, 206512000000, 
-0.0595468843438046, -0.030162446492318133, 0.17538173863633388, 206517000000, 
-0.08702716347053073, 0.07254020021413458, 0.17485533101967027, 206522000000, 
-0.06516450167996898, 0.09234617134256676, 0.17513159059854586, 206527000000, 
-0.024453152147451807, 0.0021984875289504206, 0.17464354285100517, 206532000000, 
-0.06712056375262826, 0.05786325851345656, 0.1748127630626776, 206537000000, 
-0.04720392195240041, 0.09311908075500885, 0.17452829488007165, 206542000000, 
-0.05300170606489797, -0.021072255040752545, 0.17435703466185754, 206547000000, 
-0.04171774622480604, 0.07438951833735047, 0.17456321585607806, 206552000000, 
-0.054880266305964126, 0.10703927311755863, 0.1739592927752537, 206557000000, 
-0.07531533239900082, -0.014935410741104469, 0.17418644774525055, 206562000000, 
-0.04297469020531215, 0.04870949729254034, 0.17425646660266167, 206568000000, 
-0.025888572045713848, 0.12879386252337113, 0.17379662895591635, 206573000000, 
-0.07090688115629015, -0.025789622131106835, 0.174119212176306, 206578000000, 
-0.07407764554718436, 0.05639842631183849, 0.1742674909670761, 206583000000, 
-0.06131670925825081, 0.0796647771878853, 0.1740673469127898, 206589000000, 
-0.05150835083869263, -0.03453609516131248, 0.1741050407380372, 206594000000, 
-0.04742533047133395, 0.049208676433484026, 0.174147592471334, 206599000000, 
-0.03169459291822142, 0.1034132754566405, 0.17447908145702062, 206604000000, 
-0.06410998728856405, -0.01154777606568406, 0.17447953435341135, 206609000000, 
-0.0588100267767495, 0.054094855200639703, 0.17441609447670003, 206614000000, 
-0.06967900099312505, 0.043611170421028696, 0.17458657573970768, 206619000000, 
-0.0595858576233568, 0.02913527804905285, 0.1741856542808423, 206624000000, 
-0.052350276178978264, 0.058743430588681894, 0.17404541540046026, 206629000000, 
-0.03552623124309595, 0.10541545687217897, 0.173789004555617, 206634000000, 
-0.06463163921041852, -0.02969369369228173, 0.17337705179575197, 206639000000, 
-0.073478856056252, 0.053576934703243845, 0.17285972959280393, 206644000000, 
-0.03785256161610086, 0.10553808690980936, 0.17253792080228525, 206649000000, 
-0.10864173333786462, -0.029605558219491703, 0.17189268084789697, 206654000000, 
-0.05176009888472212, 0.039220319019854614, 0.17208632839877416, 206659000000, 
-0.046840396429761816, 0.11418838026255708, 0.17121846824747208, 206664000000, 
-0.05773580564478356, -0.034017707951276774, 0.17139656520320612, 206669000000, 
-0.05999191253731854, 0.06446609307186961, 0.17130027473185094, 206674000000, 
-0.06694362094433037, 0.1374898474103767, 0.1710762536645628, 206679000000, 
-0.051201562394928554, -0.014641188545654802, 0.17118244920729495, 206684000000, 
